Time(s)	Delta1C(deg)	Delta2C(deg)	Delta3C(deg)	Delta4C(deg)	Delta1(deg)	Delta2(deg)	Delta3(deg)	Delta4(deg)
0.000	0.000000	0.000000	0.000000	0.000000	-1.588780	-0.243532	0.158931	-0.201911
0.010	0.000000	0.000000	0.000000	0.000000	-1.588780	-0.243532	0.158931	-0.201911
0.020	0.000000	0.000000	0.000000	0.000000	-1.243411	-0.174423	-0.158392	-0.032661
0.030	0.000000	0.000000	0.000000	0.000000	-1.243411	-0.190745	-0.175301	0.315589
0.040	0.000000	0.000000	0.000000	0.000000	-1.554078	-0.174423	-0.158392	-0.014332
0.050	0.000000	0.000000	0.000000	0.000000	-1.243411	-0.158100	-0.175301	-0.014332
0.060	0.000000	0.000000	0.000000	0.000000	-1.227877	-0.158100	-0.479673	0.297260
0.070	0.000000	0.000000	0.000000	0.000000	-1.538544	-0.174423	-0.175301	0.315589
0.080	0.000000	0.000000	0.000000	0.000000	-1.243411	-0.190745	-0.158392	0.315589
0.090	0.000000	0.000000	0.000000	0.000000	-1.243411	0.135701	-0.175301	0.315589
0.100	0.000000	0.000000	0.000000	0.000000	-1.227877	-0.158100	-0.479673	-0.032661
0.110	0.000000	0.000000	0.000000	0.000000	-1.243411	-0.174423	-0.175301	0.315589
0.120	0.000000	0.000000	0.000000	0.000000	-1.258944	0.135701	-0.175301	-0.032661
0.130	0.000000	0.000000	0.000000	0.000000	-1.243411	-0.158100	-0.175301	0.315589
0.140	0.000000	0.000000	0.000000	0.000000	-1.538544	-0.174423	-0.175301	0.297260
0.150	0.000000	0.000000	0.000000	0.000000	-1.554078	0.135701	0.129070	-0.014332
0.160	0.000000	0.000000	0.000000	0.000000	-1.243411	-0.190745	-0.479673	0.297260
0.170	0.000000	0.000000	0.000000	0.000000	-1.227877	-0.174423	-0.496582	-0.014332
0.180	0.000000	0.000000	0.000000	0.000000	-1.538544	-0.174423	-0.158392	0.297260
0.190	0.000000	0.000000	0.000000	0.000000	-1.243411	-0.174423	-0.175301	-0.050990
0.200	0.000000	0.000000	0.000000	0.000000	-1.538544	-0.174423	-0.158392	-0.014332
0.210	0.000000	0.000000	0.000000	0.000000	-1.243411	0.135701	-0.175301	0.297260
0.220	0.000000	0.000000	0.000000	0.000000	-1.258944	-0.174423	-0.175301	0.297260
0.230	0.000000	0.000000	0.000000	0.000000	-1.554078	-0.174423	-0.175301	-0.032661
0.240	0.000000	0.000000	0.000000	0.000000	-1.258944	-0.174423	-0.158392	0.297260
0.250	0.000000	0.000000	0.000000	0.000000	-1.243411	-0.174423	-0.158392	0.297260
0.260	0.000000	0.000000	0.000000	0.000000	-1.243411	-0.174423	-0.175301	-0.050990
0.270	0.000000	0.000000	0.000000	0.000000	-1.243411	-0.174423	-0.175301	0.315589
0.280	0.000000	0.000000	0.000000	0.000000	-1.538544	-0.174423	-0.479673	-0.032661
0.290	0.000000	0.000000	0.000000	0.000000	-1.523011	-0.174423	-0.479673	0.297260
0.300	0.000000	0.000000	0.000000	0.000000	-1.538544	0.135701	-0.175301	-0.032661
0.310	0.000000	0.000000	0.000000	0.000000	-1.538544	-0.174423	-0.175301	0.297260
0.320	0.000000	0.000000	0.000000	0.000000	-1.243411	-0.158100	-0.158392	0.297260
0.330	0.000000	0.000000	0.000000	0.000000	-1.243411	-0.174423	-0.175301	0.315589
0.340	0.000000	0.000000	0.000000	0.000000	-1.243411	-0.158100	-0.462763	0.297260
0.350	0.000000	0.000000	0.000000	0.000000	-1.243411	-0.174423	-0.158392	0.297260
0.360	0.000000	0.000000	0.000000	0.000000	-1.243411	-0.174423	-0.158392	0.333918
0.370	0.000000	0.000000	0.000000	0.000000	-1.538544	-0.158100	-0.175301	-0.032661
0.380	0.000000	0.000000	0.000000	0.000000	-1.523011	-0.158100	-0.175301	-0.032661
0.390	0.000000	0.000000	0.000000	0.000000	-1.243411	-0.174423	-0.462763	0.297260
0.400	0.000000	0.000000	0.000000	0.000000	-1.243411	0.135701	-0.175301	-0.050990
0.410	0.000000	0.000000	0.000000	0.000000	-1.243411	-0.158100	-0.158392	-0.032661
0.420	0.000000	0.000000	0.000000	0.000000	-1.538544	-0.158100	-0.175301	0.297260
0.430	0.000000	0.000000	0.000000	0.000000	-1.554078	-0.158100	-0.158392	0.297260
0.440	0.000000	0.000000	0.000000	0.000000	-1.243411	-0.174423	-0.158392	-0.032661
0.450	0.000000	0.000000	0.000000	0.000000	-1.258944	-0.174423	-0.175301	0.297260
0.460	0.000000	0.000000	0.000000	0.000000	-1.258944	-0.190745	-0.158392	0.297260
0.470	0.000000	0.000000	0.000000	0.000000	-1.538544	0.135701	-0.158392	0.315589
0.480	0.000000	0.000000	0.000000	0.000000	-1.554078	-0.174423	-0.175301	0.315589
0.490	0.000000	0.000000	0.000000	0.000000	-1.538544	-0.174423	-0.175301	0.297260
0.500	0.000000	0.000000	0.000000	0.000000	-1.243411	-0.190745	-0.175301	-0.014332
0.510	0.000000	0.000000	0.000000	0.000000	-1.538544	-0.158100	-0.158392	-0.014332
0.520	0.000000	0.000000	0.000000	0.000000	-1.538544	-0.174423	-0.479673	0.315589
0.530	0.000000	0.000000	0.000000	0.000000	-1.243411	-0.174423	-0.158392	-0.032661
0.540	0.000000	0.000000	0.000000	0.000000	-1.243411	-0.174423	-0.158392	0.315589
0.550	0.000000	0.000000	0.000000	0.000000	-1.538544	0.152023	-0.175301	0.315589
0.560	0.000000	0.000000	0.000000	0.000000	-1.227877	-0.174423	-0.479673	0.333918
0.570	0.000000	0.000000	0.000000	0.000000	-1.227877	-0.174423	-0.158392	-0.032661
0.580	0.000000	0.000000	0.000000	0.000000	-1.538544	-0.190745	-0.479673	0.315589
0.590	0.000000	0.000000	0.000000	0.000000	-1.243411	-0.174423	-0.175301	0.297260
0.600	0.000000	0.000000	0.000000	0.000000	-1.243411	0.119378	-0.175301	-0.050990
0.610	0.000000	0.000000	0.000000	0.000000	-1.227877	0.135701	-0.175301	-0.032661
0.620	0.000000	0.000000	0.000000	0.000000	-1.243411	0.152023	-0.175301	0.315589
0.630	0.000000	0.000000	0.000000	0.000000	-1.243411	0.135701	-0.158392	-0.014332
0.640	0.000000	0.000000	0.000000	0.000000	-1.523011	-0.158100	-0.175301	-0.032661
0.650	0.000000	0.000000	0.000000	0.000000	-1.227877	-0.158100	-0.175301	0.297260
0.660	0.000000	0.000000	0.000000	0.000000	-1.227877	-0.174423	-0.175301	0.315589
0.670	0.000000	0.000000	0.000000	0.000000	-1.523011	-0.174423	-0.192211	-0.032661
0.680	0.000000	0.000000	0.000000	0.000000	-1.243411	-0.174423	-0.175301	0.297260
0.690	0.000000	0.000000	0.000000	0.000000	-1.243411	-0.158100	-0.175301	0.315589
0.700	0.000000	0.000000	0.000000	0.000000	-1.243411	-0.174423	-0.175301	-0.032661
0.710	0.000000	0.000000	0.000000	0.000000	-1.243411	0.152023	-0.175301	-0.050990
0.720	0.000000	0.000000	0.000000	0.000000	-1.243411	-0.174423	-0.175301	-0.032661
0.730	0.000000	0.000000	0.000000	0.000000	-1.538544	-0.174423	-0.158392	-0.014332
0.740	0.000000	0.000000	0.000000	0.000000	-1.538544	0.135701	-0.175301	0.297260
0.750	0.000000	0.000000	0.000000	0.000000	-1.243411	-0.158100	-0.158392	0.297260
0.760	0.000000	0.000000	0.000000	0.000000	-1.538544	-0.174423	-0.175301	0.297260
0.770	0.000000	0.000000	0.000000	0.000000	-1.258944	-0.174423	-0.462763	-0.014332
0.780	0.000000	0.000000	0.000000	0.000000	-1.243411	-0.158100	-0.175301	0.315589
0.790	0.000000	0.000000	0.000000	0.000000	-1.538544	-0.174423	-0.158392	0.315589
0.800	0.000000	0.000000	0.000000	0.000000	-1.243411	0.135701	-0.158392	0.315589
0.810	0.000000	0.000000	0.000000	0.000000	-1.243411	-0.174423	-0.175301	-0.032661
0.820	0.000000	0.000000	0.000000	0.000000	-1.554078	-0.174423	-0.158392	-0.032661
0.830	0.000000	0.000000	0.000000	0.000000	-1.258944	-0.158100	-0.479673	-0.014332
0.840	0.000000	0.000000	0.000000	0.000000	-1.243411	-0.158100	-0.192211	0.315589
0.850	0.000000	0.000000	0.000000	0.000000	-1.243411	-0.174423	-0.175301	-0.032661
0.860	0.000000	0.000000	0.000000	0.000000	-1.243411	-0.158100	-0.158392	0.297260
0.870	0.000000	0.000000	0.000000	0.000000	-1.258944	0.135701	-0.175301	0.297260
0.880	0.000000	0.000000	0.000000	0.000000	-1.538544	-0.174423	-0.158392	-0.014332
0.890	0.000000	0.000000	0.000000	0.000000	-1.258944	-0.174423	-0.175301	-0.032661
0.900	0.000000	0.000000	0.000000	0.000000	-1.523011	-0.158100	-0.175301	-0.032661
0.910	0.000000	0.000000	0.000000	0.000000	-1.538544	-0.158100	-0.158392	0.297260
0.920	0.000000	0.000000	0.000000	0.000000	-1.258944	-0.174423	-0.175301	-0.032661
0.930	0.000000	0.000000	0.000000	0.000000	-1.243411	-0.174423	-0.479673	0.297260
0.940	0.000000	0.000000	0.000000	0.000000	-1.243411	-0.174423	-0.158392	0.297260
0.950	0.000000	0.000000	0.000000	0.000000	-1.243411	-0.190745	-0.158392	0.297260
0.960	0.000000	0.000000	0.000000	0.000000	-1.227877	-0.174423	-0.158392	0.315589
0.970	0.000000	0.000000	0.000000	0.000000	-1.227877	-0.158100	-0.175301	0.297260
0.980	0.000000	0.000000	0.000000	0.000000	-1.523011	-0.174423	-0.479673	0.315589
0.990	0.000000	0.000000	0.000000	0.000000	-1.243411	-0.174423	-0.175301	-0.014332
1.000	0.000000	0.000000	0.000000	0.000000	-1.523011	-0.174423	-0.175301	-0.032661
1.010	15.000000	15.000000	15.000000	15.000000	-1.243411	-0.158100	-0.158392	0.315589
1.020	15.000000	15.000000	15.000000	15.000000	-1.243411	0.152023	-0.158392	0.297260
1.030	15.000000	15.000000	15.000000	15.000000	-1.243411	0.135701	-0.158392	0.315589
1.040	15.000000	15.000000	15.000000	15.000000	-0.358010	1.049748	0.467260	1.653602
1.050	15.000000	15.000000	15.000000	15.000000	1.102123	2.290241	2.327307	3.358194
1.060	15.000000	15.000000	15.000000	15.000000	2.857391	3.824536	3.866073	5.411036
1.070	15.000000	15.000000	15.000000	15.000000	4.892258	5.995399	6.030491	7.463878
1.080	15.000000	15.000000	15.000000	15.000000	6.958192	7.856138	8.211819	9.846641
1.090	15.000000	15.000000	15.000000	15.000000	8.697926	9.700556	10.071865	12.229404
1.100	15.000000	15.000000	15.000000	15.000000	10.748327	10.614603	12.253193	14.612167
1.110	15.000000	15.000000	15.000000	15.000000	12.208461	11.855096	14.096330	16.316759
1.120	15.000000	15.000000	15.000000	15.000000	12.503594	12.785466	14.417611	16.665009
1.130	15.000000	15.000000	15.000000	15.000000	12.503594	14.025959	14.721982	16.665009
1.140	15.000000	15.000000	15.000000	15.000000	12.503594	14.009637	14.417611	16.316759
1.150	15.000000	15.000000	15.000000	15.000000	12.503594	14.025959	14.738892	15.986838
1.160	15.000000	15.000000	15.000000	15.000000	12.503594	14.025959	14.417611	15.986838
1.170	15.000000	15.000000	15.000000	15.000000	12.503594	14.025959	14.417611	16.316759
1.180	15.000000	15.000000	15.000000	15.000000	12.503594	14.025959	14.417611	15.986838
1.190	15.000000	15.000000	15.000000	15.000000	12.503594	14.009637	14.417611	15.968509
1.200	15.000000	15.000000	15.000000	15.000000	12.503594	14.009637	14.417611	15.968509
1.210	15.000000	15.000000	15.000000	15.000000	12.503594	14.025959	14.417611	15.968509
1.220	15.000000	15.000000	15.000000	15.000000	12.503594	14.009637	14.721982	15.968509
1.230	15.000000	15.000000	15.000000	15.000000	12.488061	14.025959	14.417611	15.986838
1.240	15.000000	15.000000	15.000000	15.000000	12.798728	14.009637	14.400702	15.968509
1.250	15.000000	15.000000	15.000000	15.000000	12.798728	14.025959	14.417611	15.638588
1.260	15.000000	15.000000	15.000000	15.000000	12.503594	14.025959	14.417611	15.986838
1.270	15.000000	15.000000	15.000000	15.000000	12.488061	14.025959	14.417611	15.968509
1.280	15.000000	15.000000	15.000000	15.000000	12.488061	14.025959	14.417611	16.005167
1.290	15.000000	15.000000	15.000000	15.000000	12.503594	14.025959	14.400702	15.656917
1.300	15.000000	15.000000	15.000000	15.000000	12.192927	14.009637	14.400702	15.986838
1.310	15.000000	15.000000	15.000000	15.000000	12.503594	14.009637	14.417611	15.986838
1.320	15.000000	15.000000	15.000000	15.000000	12.503594	14.009637	14.705073	15.986838
1.330	15.000000	15.000000	15.000000	15.000000	12.503594	14.009637	14.400702	15.986838
1.340	15.000000	15.000000	15.000000	15.000000	12.488061	14.009637	14.417611	15.986838
1.350	15.000000	15.000000	15.000000	15.000000	12.503594	14.025959	14.417611	15.986838
1.360	15.000000	15.000000	15.000000	15.000000	12.503594	14.009637	14.434521	15.986838
1.370	15.000000	15.000000	15.000000	15.000000	12.503594	14.025959	14.417611	15.968509
1.380	15.000000	15.000000	15.000000	15.000000	12.503594	14.009637	14.400702	15.656917
1.390	15.000000	15.000000	15.000000	15.000000	12.503594	14.025959	14.400702	15.950180
1.400	15.000000	15.000000	15.000000	15.000000	12.503594	14.009637	14.417611	15.968509
1.410	15.000000	15.000000	15.000000	15.000000	12.503594	14.025959	14.400702	15.986838
1.420	15.000000	15.000000	15.000000	15.000000	12.503594	14.009637	14.400702	15.968509
1.430	15.000000	15.000000	15.000000	15.000000	12.503594	14.009637	14.417611	15.638588
1.440	15.000000	15.000000	15.000000	15.000000	12.503594	14.025959	14.417611	15.968509
1.450	15.000000	15.000000	15.000000	15.000000	12.503594	14.009637	14.417611	15.968509
1.460	15.000000	15.000000	15.000000	15.000000	12.503594	14.025959	14.721982	15.968509
1.470	15.000000	15.000000	15.000000	15.000000	12.503594	14.025959	14.400702	15.986838
1.480	15.000000	15.000000	15.000000	15.000000	12.503594	14.025959	14.721982	15.638588
1.490	15.000000	15.000000	15.000000	15.000000	12.503594	14.025959	14.400702	15.968509
1.500	15.000000	15.000000	15.000000	15.000000	12.503594	14.025959	14.721982	15.986838
1.510	15.000000	15.000000	15.000000	15.000000	12.488061	14.025959	14.417611	15.638588
1.520	15.000000	15.000000	15.000000	15.000000	12.488061	14.025959	14.417611	15.968509
1.530	15.000000	15.000000	15.000000	15.000000	12.488061	14.025959	14.738892	15.968509
1.540	15.000000	15.000000	15.000000	15.000000	12.503594	14.009637	14.400702	15.620259
1.550	15.000000	15.000000	15.000000	15.000000	12.519127	14.025959	14.400702	15.986838
1.560	15.000000	15.000000	15.000000	15.000000	12.503594	14.009637	14.417611	15.968509
1.570	15.000000	15.000000	15.000000	15.000000	12.503594	14.025959	14.417611	15.968509
1.580	15.000000	15.000000	15.000000	15.000000	12.503594	14.025959	14.400702	15.620259
1.590	15.000000	15.000000	15.000000	15.000000	12.503594	14.025959	14.721982	15.986838
1.600	15.000000	15.000000	15.000000	15.000000	12.503594	14.009637	14.738892	15.620259
1.610	15.000000	15.000000	15.000000	15.000000	12.519127	14.025959	14.400702	15.638588
1.620	15.000000	15.000000	15.000000	15.000000	12.519127	14.025959	14.417611	15.968509
1.630	15.000000	15.000000	15.000000	15.000000	12.503594	14.025959	14.400702	15.968509
1.640	15.000000	15.000000	15.000000	15.000000	12.503594	14.009637	14.721982	15.638588
1.650	15.000000	15.000000	15.000000	15.000000	12.519127	14.009637	14.721982	15.968509
1.660	15.000000	15.000000	15.000000	15.000000	12.503594	14.009637	14.721982	15.986838
1.670	15.000000	15.000000	15.000000	15.000000	12.503594	14.025959	14.400702	15.968509
1.680	15.000000	15.000000	15.000000	15.000000	12.503594	14.009637	14.417611	15.968509
1.690	15.000000	15.000000	15.000000	15.000000	12.503594	14.025959	14.721982	15.656917
1.700	15.000000	15.000000	15.000000	15.000000	12.503594	14.009637	14.417611	15.968509
1.710	15.000000	15.000000	15.000000	15.000000	12.519127	14.009637	14.417611	15.620259
1.720	15.000000	15.000000	15.000000	15.000000	12.503594	14.025959	14.417611	15.968509
1.730	15.000000	15.000000	15.000000	15.000000	12.488061	14.009637	14.705073	15.986838
1.740	15.000000	15.000000	15.000000	15.000000	12.503594	14.025959	14.721982	15.968509
1.750	15.000000	15.000000	15.000000	15.000000	12.503594	14.009637	14.400702	15.968509
1.760	15.000000	15.000000	15.000000	15.000000	12.503594	14.009637	14.400702	15.968509
1.770	15.000000	15.000000	15.000000	15.000000	12.503594	14.042282	14.417611	16.005167
1.780	15.000000	15.000000	15.000000	15.000000	12.503594	14.009637	14.400702	15.986838
1.790	15.000000	15.000000	15.000000	15.000000	12.503594	14.009637	14.400702	15.986838
1.800	15.000000	15.000000	15.000000	15.000000	12.503594	13.993315	14.400702	15.638588
1.810	15.000000	15.000000	15.000000	15.000000	12.519127	14.025959	14.400702	15.638588
1.820	15.000000	15.000000	15.000000	15.000000	12.503594	14.009637	14.400702	15.968509
1.830	15.000000	15.000000	15.000000	15.000000	12.503594	14.009637	14.400702	15.986838
1.840	15.000000	15.000000	15.000000	15.000000	12.503594	14.025959	14.417611	15.986838
1.850	15.000000	15.000000	15.000000	15.000000	12.519127	14.025959	14.721982	15.968509
1.860	15.000000	15.000000	15.000000	15.000000	12.503594	14.025959	14.721982	15.986838
1.870	15.000000	15.000000	15.000000	15.000000	12.503594	14.009637	14.400702	15.638588
1.880	15.000000	15.000000	15.000000	15.000000	12.503594	14.009637	14.705073	15.968509
1.890	15.000000	15.000000	15.000000	15.000000	12.503594	14.025959	14.400702	15.968509
1.900	15.000000	15.000000	15.000000	15.000000	12.798728	14.009637	14.417611	15.656917
1.910	15.000000	15.000000	15.000000	15.000000	12.488061	14.025959	14.721982	15.986838
1.920	15.000000	15.000000	15.000000	15.000000	12.519127	14.025959	14.417611	15.986838
1.930	15.000000	15.000000	15.000000	15.000000	12.488061	14.025959	14.400702	15.986838
1.940	15.000000	15.000000	15.000000	15.000000	12.798728	14.009637	14.400702	15.638588
1.950	15.000000	15.000000	15.000000	15.000000	12.503594	14.025959	14.705073	15.638588
1.960	15.000000	15.000000	15.000000	15.000000	12.503594	14.009637	14.400702	15.638588
1.970	15.000000	15.000000	15.000000	15.000000	12.488061	14.009637	14.400702	15.986838
1.980	15.000000	15.000000	15.000000	15.000000	12.488061	14.025959	14.400702	15.968509
1.990	15.000000	15.000000	15.000000	15.000000	12.519127	14.025959	14.400702	15.968509
2.000	15.000000	15.000000	15.000000	15.000000	12.503594	14.009637	14.721982	15.986838
2.010	15.000000	15.000000	15.000000	15.000000	12.503594	14.025959	14.721982	15.986838
2.020	15.000000	15.000000	15.000000	15.000000	12.503594	14.025959	14.400702	15.968509
2.030	15.000000	15.000000	15.000000	15.000000	12.503594	14.009637	14.400702	15.638588
2.040	15.000000	15.000000	15.000000	15.000000	12.503594	14.025959	14.417611	15.986838
2.050	15.000000	15.000000	15.000000	15.000000	12.503594	14.025959	14.417611	15.986838
2.060	15.000000	15.000000	15.000000	15.000000	12.503594	14.009637	14.400702	15.968509
2.070	15.000000	15.000000	15.000000	15.000000	12.503594	14.009637	14.721982	15.986838
2.080	15.000000	15.000000	15.000000	15.000000	12.503594	14.009637	14.400702	15.986838
2.090	15.000000	15.000000	15.000000	15.000000	12.488061	14.025959	14.400702	15.968509
2.100	15.000000	15.000000	15.000000	15.000000	12.503594	14.025959	14.400702	16.005167
2.110	15.000000	15.000000	15.000000	15.000000	12.488061	14.025959	14.400702	15.638588
2.120	15.000000	15.000000	15.000000	15.000000	12.503594	14.009637	14.400702	15.638588
2.130	15.000000	15.000000	15.000000	15.000000	12.503594	14.009637	14.400702	15.986838
2.140	15.000000	15.000000	15.000000	15.000000	12.503594	14.009637	14.400702	15.986838
2.150	15.000000	15.000000	15.000000	15.000000	12.503594	14.025959	14.400702	15.986838
2.160	15.000000	15.000000	15.000000	15.000000	12.503594	14.009637	14.400702	15.968509
2.170	15.000000	15.000000	15.000000	15.000000	12.488061	14.025959	14.400702	15.986838
2.180	15.000000	15.000000	15.000000	15.000000	12.488061	14.009637	14.400702	15.968509
2.190	15.000000	15.000000	15.000000	15.000000	12.503594	14.025959	14.400702	15.986838
2.200	15.000000	15.000000	15.000000	15.000000	12.488061	14.009637	14.400702	15.986838
2.210	15.000000	15.000000	15.000000	15.000000	12.488061	14.025959	14.400702	15.968509
2.220	15.000000	15.000000	15.000000	15.000000	12.503594	14.009637	14.400702	15.638588
2.230	15.000000	15.000000	15.000000	15.000000	12.503594	14.009637	14.400702	15.986838
2.240	15.000000	15.000000	15.000000	15.000000	12.503594	14.025959	14.400702	15.986838
2.250	15.000000	15.000000	15.000000	15.000000	12.503594	14.009637	14.417611	15.638588
2.260	15.000000	15.000000	15.000000	15.000000	12.488061	14.009637	14.400702	15.986838
2.270	15.000000	15.000000	15.000000	15.000000	12.503594	14.009637	14.705073	15.986838
2.280	15.000000	15.000000	15.000000	15.000000	12.488061	14.009637	14.721982	15.968509
2.290	15.000000	15.000000	15.000000	15.000000	12.488061	13.993315	14.400702	15.968509
2.300	15.000000	15.000000	15.000000	15.000000	12.503594	14.009637	14.417611	15.968509
2.310	15.000000	15.000000	15.000000	15.000000	12.503594	14.009637	14.400702	15.968509
2.320	15.000000	15.000000	15.000000	15.000000	12.488061	14.009637	14.417611	15.968509
2.330	15.000000	15.000000	15.000000	15.000000	12.488061	14.009637	14.417611	15.638588
2.340	15.000000	15.000000	15.000000	15.000000	12.488061	14.009637	14.417611	15.986838
2.350	15.000000	15.000000	15.000000	15.000000	12.503594	14.025959	14.721982	15.986838
2.360	15.000000	15.000000	15.000000	15.000000	12.503594	14.009637	14.400702	15.968509
2.370	15.000000	15.000000	15.000000	15.000000	12.488061	14.025959	14.721982	15.968509
2.380	15.000000	15.000000	15.000000	15.000000	12.503594	14.025959	14.400702	15.968509
2.390	15.000000	15.000000	15.000000	15.000000	12.503594	14.009637	14.400702	15.986838
2.400	15.000000	15.000000	15.000000	15.000000	12.503594	14.025959	14.400702	15.986838
2.410	15.000000	15.000000	15.000000	15.000000	12.503594	14.025959	14.417611	15.638588
2.420	15.000000	15.000000	15.000000	15.000000	12.488061	14.009637	14.400702	15.986838
2.430	15.000000	15.000000	15.000000	15.000000	12.503594	14.025959	14.400702	15.986838
2.440	15.000000	15.000000	15.000000	15.000000	12.503594	14.025959	14.417611	15.986838
2.450	15.000000	15.000000	15.000000	15.000000	12.503594	14.025959	14.400702	15.638588
2.460	15.000000	15.000000	15.000000	15.000000	12.798728	13.993315	14.400702	15.638588
2.470	15.000000	15.000000	15.000000	15.000000	12.488061	14.009637	14.400702	15.968509
2.480	15.000000	15.000000	15.000000	15.000000	12.503594	14.009637	14.400702	15.986838
2.490	15.000000	15.000000	15.000000	15.000000	12.503594	14.009637	14.705073	15.986838
2.500	15.000000	15.000000	15.000000	15.000000	12.503594	14.009637	14.417611	15.968509
2.510	15.000000	15.000000	15.000000	15.000000	12.503594	14.009637	14.400702	15.620259
2.520	15.000000	15.000000	15.000000	15.000000	12.503594	14.009637	14.400702	15.986838
2.530	15.000000	15.000000	15.000000	15.000000	12.503594	14.025959	14.400702	15.968509
2.540	15.000000	15.000000	15.000000	15.000000	12.503594	14.009637	14.400702	15.986838
2.550	15.000000	15.000000	15.000000	15.000000	12.503594	14.025959	14.721982	15.638588
2.560	15.000000	15.000000	15.000000	15.000000	12.503594	14.025959	14.417611	15.968509
2.570	15.000000	15.000000	15.000000	15.000000	12.488061	14.009637	14.400702	15.968509
2.580	15.000000	15.000000	15.000000	15.000000	12.503594	14.009637	14.400702	15.656917
2.590	15.000000	15.000000	15.000000	15.000000	12.488061	14.009637	14.417611	15.968509
2.600	15.000000	15.000000	15.000000	15.000000	12.488061	14.009637	14.417611	15.986838
2.610	15.000000	15.000000	15.000000	15.000000	12.488061	14.025959	14.721982	15.638588
2.620	15.000000	15.000000	15.000000	15.000000	12.472527	14.009637	14.400702	15.986838
2.630	15.000000	15.000000	15.000000	15.000000	12.488061	14.009637	14.417611	15.986838
2.640	15.000000	15.000000	15.000000	15.000000	12.503594	13.993315	14.400702	15.986838
2.650	15.000000	15.000000	15.000000	15.000000	12.503594	14.009637	14.417611	15.968509
2.660	15.000000	15.000000	15.000000	15.000000	12.488061	14.025959	14.417611	15.986838
2.670	15.000000	15.000000	15.000000	15.000000	12.503594	14.009637	14.417611	15.986838
2.680	15.000000	15.000000	15.000000	15.000000	12.488061	14.025959	14.400702	15.986838
2.690	15.000000	15.000000	15.000000	15.000000	12.503594	14.025959	14.400702	15.986838
2.700	15.000000	15.000000	15.000000	15.000000	12.503594	14.009637	14.400702	15.968509
2.710	15.000000	15.000000	15.000000	15.000000	12.503594	14.009637	14.417611	15.986838
2.720	15.000000	15.000000	15.000000	15.000000	12.503594	14.009637	14.417611	15.986838
2.730	15.000000	15.000000	15.000000	15.000000	12.488061	14.009637	14.400702	15.986838
2.740	15.000000	15.000000	15.000000	15.000000	12.503594	14.009637	14.417611	15.986838
2.750	15.000000	15.000000	15.000000	15.000000	12.488061	14.025959	14.721982	15.638588
2.760	15.000000	15.000000	15.000000	15.000000	12.503594	14.009637	14.400702	15.986838
2.770	15.000000	15.000000	15.000000	15.000000	12.503594	14.025959	14.400702	15.968509
2.780	15.000000	15.000000	15.000000	15.000000	12.503594	14.025959	14.400702	15.968509
2.790	15.000000	15.000000	15.000000	15.000000	12.503594	14.025959	14.400702	15.986838
2.800	15.000000	15.000000	15.000000	15.000000	12.503594	13.993315	14.721982	15.986838
2.810	15.000000	15.000000	15.000000	15.000000	12.503594	14.025959	14.400702	15.986838
2.820	15.000000	15.000000	15.000000	15.000000	12.503594	14.025959	14.417611	15.986838
2.830	15.000000	15.000000	15.000000	15.000000	12.488061	14.009637	14.400702	15.986838
2.840	15.000000	15.000000	15.000000	15.000000	12.503594	14.009637	14.400702	15.638588
2.850	15.000000	15.000000	15.000000	15.000000	12.503594	14.009637	14.721982	15.968509
2.860	15.000000	15.000000	15.000000	15.000000	12.503594	14.009637	14.400702	15.968509
2.870	15.000000	15.000000	15.000000	15.000000	12.503594	14.025959	14.400702	15.986838
2.880	15.000000	15.000000	15.000000	15.000000	12.503594	14.009637	14.417611	15.968509
2.890	15.000000	15.000000	15.000000	15.000000	12.503594	13.993315	14.721982	15.968509
2.900	15.000000	15.000000	15.000000	15.000000	12.488061	14.009637	14.417611	15.968509
2.910	15.000000	15.000000	15.000000	15.000000	12.503594	14.025959	14.400702	15.986838
2.920	15.000000	15.000000	15.000000	15.000000	12.208461	14.025959	14.400702	15.968509
2.930	15.000000	15.000000	15.000000	15.000000	12.488061	14.009637	14.417611	15.986838
2.940	15.000000	15.000000	15.000000	15.000000	12.503594	14.025959	14.400702	16.005167
2.950	15.000000	15.000000	15.000000	15.000000	12.503594	14.009637	14.417611	15.986838
2.960	15.000000	15.000000	15.000000	15.000000	12.503594	14.025959	14.721982	15.986838
2.970	15.000000	15.000000	15.000000	15.000000	12.488061	14.009637	14.417611	15.968509
2.980	15.000000	15.000000	15.000000	15.000000	12.503594	14.009637	14.417611	15.986838
2.990	15.000000	15.000000	15.000000	15.000000	12.503594	14.025959	14.400702	15.986838
3.000	15.000000	15.000000	15.000000	15.000000	12.503594	14.025959	14.400702	15.986838
3.010	15.000000	15.000000	15.000000	15.000000	12.503594	14.025959	14.400702	15.986838
3.020	15.000000	15.000000	15.000000	15.000000	12.503594	14.025959	14.417611	15.968509
3.030	15.000000	15.000000	15.000000	15.000000	12.503594	14.025959	14.721982	15.968509
3.040	15.000000	15.000000	15.000000	15.000000	12.503594	14.025959	14.417611	15.968509
3.050	15.000000	15.000000	15.000000	15.000000	12.503594	14.009637	14.417611	15.638588
3.060	15.000000	15.000000	15.000000	15.000000	12.488061	14.025959	14.400702	15.656917
3.070	15.000000	15.000000	15.000000	15.000000	12.503594	14.025959	14.417611	15.986838
3.080	15.000000	15.000000	15.000000	15.000000	12.503594	14.009637	14.400702	15.986838
3.090	15.000000	15.000000	15.000000	15.000000	12.488061	14.009637	14.400702	15.968509
3.100	15.000000	15.000000	15.000000	15.000000	12.503594	14.025959	14.400702	15.986838
3.110	15.000000	15.000000	15.000000	15.000000	12.488061	14.025959	14.705073	15.986838
3.120	15.000000	15.000000	15.000000	15.000000	12.503594	14.025959	14.400702	15.986838
3.130	15.000000	15.000000	15.000000	15.000000	12.488061	14.025959	14.705073	15.986838
3.140	15.000000	15.000000	15.000000	15.000000	12.503594	14.009637	14.721982	15.986838
3.150	15.000000	15.000000	15.000000	15.000000	12.503594	14.009637	14.400702	15.986838
3.160	15.000000	15.000000	15.000000	15.000000	12.488061	14.025959	14.400702	15.986838
3.170	15.000000	15.000000	15.000000	15.000000	12.519127	14.009637	14.400702	15.986838
3.180	15.000000	15.000000	15.000000	15.000000	12.503594	14.009637	14.705073	15.968509
3.190	15.000000	15.000000	15.000000	15.000000	12.488061	14.009637	14.400702	15.968509
3.200	15.000000	15.000000	15.000000	15.000000	12.503594	14.025959	14.400702	15.968509
3.210	15.000000	15.000000	15.000000	15.000000	12.503594	14.009637	14.705073	15.638588
3.220	15.000000	15.000000	15.000000	15.000000	12.503594	14.009637	14.400702	15.986838
3.230	15.000000	15.000000	15.000000	15.000000	12.503594	14.025959	14.417611	15.986838
3.240	15.000000	15.000000	15.000000	15.000000	12.519127	14.009637	14.400702	15.986838
3.250	15.000000	15.000000	15.000000	15.000000	12.503594	14.009637	14.721982	15.986838
3.260	15.000000	15.000000	15.000000	15.000000	12.488061	14.009637	14.417611	15.968509
3.270	15.000000	15.000000	15.000000	15.000000	12.503594	14.009637	14.721982	15.638588
3.280	15.000000	15.000000	15.000000	15.000000	12.488061	14.025959	14.400702	15.986838
3.290	15.000000	15.000000	15.000000	15.000000	12.488061	14.025959	14.417611	15.638588
3.300	15.000000	15.000000	15.000000	15.000000	12.488061	14.042282	14.400702	15.986838
3.310	15.000000	15.000000	15.000000	15.000000	12.488061	14.009637	14.400702	15.986838
3.320	15.000000	15.000000	15.000000	15.000000	12.503594	14.009637	14.417611	15.968509
3.330	15.000000	15.000000	15.000000	15.000000	12.488061	14.009637	14.400702	15.986838
3.340	15.000000	15.000000	15.000000	15.000000	12.503594	14.025959	14.705073	15.638588
3.350	15.000000	15.000000	15.000000	15.000000	12.488061	14.009637	14.721982	15.638588
3.360	15.000000	15.000000	15.000000	15.000000	12.503594	14.009637	14.400702	15.968509
3.370	15.000000	15.000000	15.000000	15.000000	12.488061	14.025959	14.417611	15.638588
3.380	15.000000	15.000000	15.000000	15.000000	12.503594	14.009637	14.417611	15.968509
3.390	15.000000	15.000000	15.000000	15.000000	12.783194	14.009637	14.400702	15.638588
3.400	15.000000	15.000000	15.000000	15.000000	12.488061	14.025959	14.400702	15.968509
3.410	15.000000	15.000000	15.000000	15.000000	12.503594	14.025959	14.721982	15.986838
3.420	15.000000	15.000000	15.000000	15.000000	12.503594	14.025959	14.417611	15.968509
3.430	15.000000	15.000000	15.000000	15.000000	12.488061	14.009637	14.417611	15.986838
3.440	15.000000	15.000000	15.000000	15.000000	12.503594	14.009637	14.400702	15.968509
3.450	15.000000	15.000000	15.000000	15.000000	12.503594	14.025959	14.721982	15.968509
3.460	15.000000	15.000000	15.000000	15.000000	12.488061	14.009637	14.400702	15.986838
3.470	15.000000	15.000000	15.000000	15.000000	12.503594	14.025959	14.383792	15.968509
3.480	15.000000	15.000000	15.000000	15.000000	12.519127	14.025959	14.400702	15.986838
3.490	15.000000	15.000000	15.000000	15.000000	12.488061	14.009637	14.721982	15.986838
3.500	15.000000	15.000000	15.000000	15.000000	12.503594	14.025959	14.400702	15.986838
3.510	15.000000	15.000000	15.000000	15.000000	12.503594	14.009637	14.400702	15.968509
3.520	15.000000	15.000000	15.000000	15.000000	12.192927	14.009637	14.417611	15.968509
3.530	15.000000	15.000000	15.000000	15.000000	12.503594	14.009637	14.721982	15.986838
3.540	15.000000	15.000000	15.000000	15.000000	12.503594	14.009637	14.400702	15.638588
3.550	15.000000	15.000000	15.000000	15.000000	12.783194	14.025959	14.721982	15.968509
3.560	15.000000	15.000000	15.000000	15.000000	12.503594	14.025959	14.417611	15.986838
3.570	15.000000	15.000000	15.000000	15.000000	12.503594	14.009637	14.400702	15.968509
3.580	15.000000	15.000000	15.000000	15.000000	12.503594	14.009637	14.417611	15.986838
3.590	15.000000	15.000000	15.000000	15.000000	12.798728	14.025959	14.721982	15.968509
3.600	15.000000	15.000000	15.000000	15.000000	12.503594	14.009637	14.400702	15.968509
3.610	15.000000	15.000000	15.000000	15.000000	12.503594	14.009637	14.400702	15.968509
3.620	15.000000	15.000000	15.000000	15.000000	12.503594	14.025959	14.417611	15.986838
3.630	15.000000	15.000000	15.000000	15.000000	12.503594	14.009637	14.400702	15.968509
3.640	15.000000	15.000000	15.000000	15.000000	12.503594	14.009637	14.417611	15.620259
3.650	15.000000	15.000000	15.000000	15.000000	12.488061	14.009637	14.400702	15.638588
3.660	15.000000	15.000000	15.000000	15.000000	12.503594	14.025959	14.417611	15.986838
3.670	15.000000	15.000000	15.000000	15.000000	12.503594	14.009637	14.417611	15.968509
3.680	15.000000	15.000000	15.000000	15.000000	12.503594	14.009637	14.721982	15.986838
3.690	15.000000	15.000000	15.000000	15.000000	12.503594	14.025959	14.400702	15.986838
3.700	15.000000	15.000000	15.000000	15.000000	12.503594	14.025959	14.400702	15.968509
3.710	15.000000	15.000000	15.000000	15.000000	12.488061	14.009637	14.417611	15.638588
3.720	15.000000	15.000000	15.000000	15.000000	12.503594	14.025959	14.721982	15.986838
3.730	15.000000	15.000000	15.000000	15.000000	12.503594	14.009637	14.400702	15.986838
3.740	15.000000	15.000000	15.000000	15.000000	12.503594	14.025959	14.400702	15.986838
3.750	15.000000	15.000000	15.000000	15.000000	12.503594	14.009637	14.400702	15.638588
3.760	15.000000	15.000000	15.000000	15.000000	12.503594	14.009637	14.400702	15.968509
3.770	15.000000	15.000000	15.000000	15.000000	12.798728	14.009637	14.400702	15.968509
3.780	15.000000	15.000000	15.000000	15.000000	12.503594	14.009637	14.721982	15.620259
3.790	15.000000	15.000000	15.000000	15.000000	12.503594	14.025959	14.400702	15.986838
3.800	15.000000	15.000000	15.000000	15.000000	12.503594	14.025959	14.417611	15.968509
3.810	15.000000	15.000000	15.000000	15.000000	12.503594	14.025959	14.417611	15.986838
3.820	15.000000	15.000000	15.000000	15.000000	12.519127	14.025959	14.721982	15.968509
3.830	15.000000	15.000000	15.000000	15.000000	12.503594	14.025959	14.400702	15.620259
3.840	15.000000	15.000000	15.000000	15.000000	12.488061	14.025959	14.417611	15.986838
3.850	15.000000	15.000000	15.000000	15.000000	12.503594	14.025959	14.721982	15.968509
3.860	15.000000	15.000000	15.000000	15.000000	12.503594	14.025959	14.417611	15.656917
3.870	15.000000	15.000000	15.000000	15.000000	12.503594	14.009637	14.400702	15.638588
3.880	15.000000	15.000000	15.000000	15.000000	12.503594	14.009637	14.417611	15.968509
3.890	15.000000	15.000000	15.000000	15.000000	12.503594	14.025959	14.417611	15.986838
3.900	15.000000	15.000000	15.000000	15.000000	12.488061	14.009637	14.417611	15.986838
3.910	15.000000	15.000000	15.000000	15.000000	12.488061	14.042282	14.417611	16.005167
3.920	15.000000	15.000000	15.000000	15.000000	12.488061	14.009637	14.400702	15.968509
3.930	15.000000	15.000000	15.000000	15.000000	12.503594	14.009637	14.721982	15.986838
3.940	15.000000	15.000000	15.000000	15.000000	12.503594	14.025959	14.417611	15.986838
3.950	15.000000	15.000000	15.000000	15.000000	12.503594	14.025959	14.400702	15.986838
3.960	15.000000	15.000000	15.000000	15.000000	12.503594	14.009637	14.721982	15.986838
3.970	15.000000	15.000000	15.000000	15.000000	12.503594	14.025959	14.400702	15.986838
3.980	15.000000	15.000000	15.000000	15.000000	12.503594	14.009637	14.417611	15.968509
3.990	15.000000	15.000000	15.000000	15.000000	12.503594	14.025959	14.417611	15.968509
4.000	15.000000	15.000000	15.000000	15.000000	12.503594	14.025959	14.705073	15.968509
4.010	15.000000	15.000000	15.000000	15.000000	12.503594	14.025959	14.417611	15.986838
4.020	15.000000	15.000000	15.000000	15.000000	12.503594	14.025959	14.417611	15.986838
4.030	15.000000	15.000000	15.000000	15.000000	12.503594	14.009637	14.400702	15.968509
4.040	15.000000	15.000000	15.000000	15.000000	12.503594	14.009637	14.721982	15.986838
4.050	15.000000	15.000000	15.000000	15.000000	12.503594	13.993315	14.417611	15.656917
4.060	15.000000	15.000000	15.000000	15.000000	12.503594	14.009637	14.400702	15.968509
4.070	15.000000	15.000000	15.000000	15.000000	12.488061	13.993315	14.400702	15.986838
4.080	15.000000	15.000000	15.000000	15.000000	12.503594	14.009637	14.400702	15.620259
4.090	15.000000	15.000000	15.000000	15.000000	12.503594	14.009637	14.400702	15.968509
4.100	15.000000	15.000000	15.000000	15.000000	12.519127	14.025959	14.400702	15.638588
4.110	15.000000	15.000000	15.000000	15.000000	12.503594	14.009637	14.705073	15.638588
4.120	15.000000	15.000000	15.000000	15.000000	12.488061	14.009637	14.417611	15.986838
4.130	15.000000	15.000000	15.000000	15.000000	12.503594	14.009637	14.705073	15.638588
4.140	15.000000	15.000000	15.000000	15.000000	12.503594	14.009637	14.417611	15.638588
4.150	15.000000	15.000000	15.000000	15.000000	12.503594	14.009637	14.417611	15.986838
4.160	15.000000	15.000000	15.000000	15.000000	12.503594	13.993315	14.400702	15.986838
4.170	15.000000	15.000000	15.000000	15.000000	12.503594	14.009637	14.400702	15.986838
4.180	15.000000	15.000000	15.000000	15.000000	12.503594	14.009637	14.417611	15.986838
4.190	15.000000	15.000000	15.000000	15.000000	12.503594	14.009637	14.400702	15.986838
4.200	15.000000	15.000000	15.000000	15.000000	12.519127	14.025959	14.721982	15.986838
4.210	15.000000	15.000000	15.000000	15.000000	12.503594	14.009637	14.417611	15.638588
4.220	15.000000	15.000000	15.000000	15.000000	12.503594	14.025959	14.400702	15.656917
4.230	15.000000	15.000000	15.000000	15.000000	12.503594	14.025959	14.705073	15.986838
4.240	15.000000	15.000000	15.000000	15.000000	12.503594	14.009637	14.400702	15.986838
4.250	15.000000	15.000000	15.000000	15.000000	12.503594	14.025959	14.400702	15.656917
4.260	15.000000	15.000000	15.000000	15.000000	12.503594	14.319760	14.400702	15.638588
4.270	15.000000	15.000000	15.000000	15.000000	12.503594	14.025959	14.400702	15.986838
4.280	15.000000	15.000000	15.000000	15.000000	12.783194	14.025959	14.417611	15.986838
4.290	15.000000	15.000000	15.000000	15.000000	12.503594	14.025959	14.417611	16.005167
4.300	15.000000	15.000000	15.000000	15.000000	12.488061	14.009637	14.417611	15.986838
4.310	15.000000	15.000000	15.000000	15.000000	12.488061	14.009637	14.417611	15.986838
4.320	15.000000	15.000000	15.000000	15.000000	12.503594	14.009637	14.400702	15.656917
4.330	15.000000	15.000000	15.000000	15.000000	12.783194	14.025959	14.721982	15.968509
4.340	15.000000	15.000000	15.000000	15.000000	12.488061	14.009637	14.721982	15.986838
4.350	15.000000	15.000000	15.000000	15.000000	12.503594	14.009637	14.417611	15.968509
4.360	15.000000	15.000000	15.000000	15.000000	12.488061	14.009637	14.417611	15.968509
4.370	15.000000	15.000000	15.000000	15.000000	12.503594	14.009637	14.417611	15.986838
4.380	15.000000	15.000000	15.000000	15.000000	12.503594	14.009637	14.417611	15.986838
4.390	15.000000	15.000000	15.000000	15.000000	12.783194	14.009637	14.400702	15.968509
4.400	15.000000	15.000000	15.000000	15.000000	12.503594	14.025959	14.400702	15.968509
4.410	15.000000	15.000000	15.000000	15.000000	12.503594	14.025959	14.417611	15.968509
4.420	15.000000	15.000000	15.000000	15.000000	12.503594	14.009637	14.721982	15.638588
4.430	15.000000	15.000000	15.000000	15.000000	12.503594	14.009637	14.417611	15.968509
4.440	15.000000	15.000000	15.000000	15.000000	12.503594	14.009637	14.417611	16.005167
4.450	15.000000	15.000000	15.000000	15.000000	12.503594	14.025959	14.400702	15.986838
4.460	15.000000	15.000000	15.000000	15.000000	12.503594	14.025959	14.721982	15.638588
4.470	15.000000	15.000000	15.000000	15.000000	12.488061	14.025959	14.400702	15.638588
4.480	15.000000	15.000000	15.000000	15.000000	12.503594	14.009637	14.417611	15.986838
4.490	15.000000	15.000000	15.000000	15.000000	12.503594	14.009637	14.417611	15.986838
4.500	15.000000	15.000000	15.000000	15.000000	12.519127	14.009637	14.400702	15.986838
4.510	15.000000	15.000000	15.000000	15.000000	12.503594	14.025959	14.400702	15.986838
4.520	15.000000	15.000000	15.000000	15.000000	12.503594	14.009637	14.400702	15.986838
4.530	15.000000	15.000000	15.000000	15.000000	12.503594	14.025959	14.400702	15.656917
4.540	15.000000	15.000000	15.000000	15.000000	12.503594	14.009637	14.400702	15.638588
4.550	15.000000	15.000000	15.000000	15.000000	12.503594	14.009637	14.400702	15.986838
4.560	15.000000	15.000000	15.000000	15.000000	12.519127	14.025959	14.705073	15.968509
4.570	15.000000	15.000000	15.000000	15.000000	12.488061	14.025959	14.400702	15.656917
4.580	15.000000	15.000000	15.000000	15.000000	12.503594	14.025959	14.400702	15.986838
4.590	15.000000	15.000000	15.000000	15.000000	12.488061	14.009637	14.417611	15.968509
4.600	15.000000	15.000000	15.000000	15.000000	12.488061	14.009637	14.721982	15.968509
4.610	15.000000	15.000000	15.000000	15.000000	12.503594	14.009637	14.400702	15.638588
4.620	15.000000	15.000000	15.000000	15.000000	12.503594	14.009637	14.417611	15.968509
4.630	15.000000	15.000000	15.000000	15.000000	12.503594	14.025959	14.400702	15.968509
4.640	15.000000	15.000000	15.000000	15.000000	12.503594	14.025959	14.417611	15.968509
4.650	15.000000	15.000000	15.000000	15.000000	12.503594	14.025959	14.721982	15.986838
4.660	15.000000	15.000000	15.000000	15.000000	12.503594	14.025959	14.400702	15.968509
4.670	15.000000	15.000000	15.000000	15.000000	12.503594	14.009637	14.400702	15.638588
4.680	15.000000	15.000000	15.000000	15.000000	12.488061	14.025959	14.705073	15.986838
4.690	15.000000	15.000000	15.000000	15.000000	12.488061	14.025959	14.400702	15.986838
4.700	15.000000	15.000000	15.000000	15.000000	12.488061	14.025959	14.400702	15.968509
4.710	15.000000	15.000000	15.000000	15.000000	12.503594	14.009637	14.721982	16.005167
4.720	15.000000	15.000000	15.000000	15.000000	12.503594	14.025959	14.400702	15.986838
4.730	15.000000	15.000000	15.000000	15.000000	12.503594	14.009637	14.400702	15.968509
4.740	15.000000	15.000000	15.000000	15.000000	12.503594	14.009637	14.400702	15.968509
4.750	15.000000	15.000000	15.000000	15.000000	12.488061	14.025959	14.400702	15.638588
4.760	15.000000	15.000000	15.000000	15.000000	12.503594	14.025959	14.417611	15.968509
4.770	15.000000	15.000000	15.000000	15.000000	12.503594	14.025959	14.417611	15.986838
4.780	15.000000	15.000000	15.000000	15.000000	12.488061	14.025959	14.400702	15.986838
4.790	15.000000	15.000000	15.000000	15.000000	12.503594	14.025959	14.417611	15.968509
4.800	15.000000	15.000000	15.000000	15.000000	12.503594	14.025959	14.400702	15.986838
4.810	15.000000	15.000000	15.000000	15.000000	12.488061	14.009637	14.417611	15.656917
4.820	15.000000	15.000000	15.000000	15.000000	12.488061	14.009637	14.417611	15.968509
4.830	15.000000	15.000000	15.000000	15.000000	12.503594	14.009637	14.400702	15.986838
4.840	15.000000	15.000000	15.000000	15.000000	12.503594	14.025959	14.417611	15.638588
4.850	15.000000	15.000000	15.000000	15.000000	12.503594	14.025959	14.721982	15.986838
4.860	15.000000	15.000000	15.000000	15.000000	12.503594	14.025959	14.417611	15.986838
4.870	15.000000	15.000000	15.000000	15.000000	12.798728	14.025959	14.400702	15.986838
4.880	15.000000	15.000000	15.000000	15.000000	12.503594	13.993315	14.400702	15.986838
4.890	15.000000	15.000000	15.000000	15.000000	12.503594	14.025959	14.417611	15.986838
4.900	15.000000	15.000000	15.000000	15.000000	12.503594	14.025959	14.400702	15.986838
4.910	15.000000	15.000000	15.000000	15.000000	12.503594	14.025959	14.417611	15.638588
4.920	15.000000	15.000000	15.000000	15.000000	12.503594	14.025959	14.400702	15.638588
4.930	15.000000	15.000000	15.000000	15.000000	12.519127	14.025959	14.400702	15.986838
4.940	15.000000	15.000000	15.000000	15.000000	12.503594	14.009637	14.721982	15.986838
4.950	15.000000	15.000000	15.000000	15.000000	12.503594	14.009637	14.400702	15.986838
4.960	15.000000	15.000000	15.000000	15.000000	12.503594	14.009637	14.417611	15.986838
4.970	15.000000	15.000000	15.000000	15.000000	12.503594	14.009637	14.417611	15.986838
4.980	15.000000	15.000000	15.000000	15.000000	12.519127	14.009637	14.400702	15.986838
4.990	15.000000	15.000000	15.000000	15.000000	12.503594	14.009637	14.417611	15.986838
5.000	15.000000	15.000000	15.000000	15.000000	12.503594	13.993315	14.400702	15.656917
5.010	15.000000	15.000000	15.000000	15.000000	12.488061	14.025959	14.721982	15.638588
5.020	15.000000	15.000000	15.000000	15.000000	12.503594	14.025959	14.400702	15.986838
5.030	15.000000	15.000000	15.000000	15.000000	12.488061	14.025959	14.400702	15.986838
5.040	15.000000	15.000000	15.000000	15.000000	12.503594	14.009637	14.400702	15.986838
5.050	15.000000	15.000000	15.000000	15.000000	12.488061	14.009637	14.400702	15.986838
5.060	15.000000	15.000000	15.000000	15.000000	12.503594	14.025959	14.400702	15.638588
5.070	15.000000	15.000000	15.000000	15.000000	12.519127	14.009637	14.400702	15.986838
5.080	15.000000	15.000000	15.000000	15.000000	12.503594	14.025959	14.705073	15.968509
5.090	15.000000	15.000000	15.000000	15.000000	12.503594	14.009637	14.400702	16.005167
5.100	15.000000	15.000000	15.000000	15.000000	12.503594	14.025959	14.400702	15.986838
5.110	15.000000	15.000000	15.000000	15.000000	12.503594	14.009637	14.400702	15.986838
5.120	15.000000	15.000000	15.000000	15.000000	12.503594	14.025959	14.400702	15.968509
5.130	15.000000	15.000000	15.000000	15.000000	12.519127	14.009637	14.400702	15.986838
5.140	15.000000	15.000000	15.000000	15.000000	12.798728	14.025959	14.417611	15.986838
5.150	15.000000	15.000000	15.000000	15.000000	12.519127	14.009637	14.417611	15.968509
5.160	15.000000	15.000000	15.000000	15.000000	12.519127	14.025959	14.721982	15.986838
5.170	15.000000	15.000000	15.000000	15.000000	12.503594	14.025959	14.400702	15.986838
5.180	15.000000	15.000000	15.000000	15.000000	12.503594	14.009637	14.400702	16.005167
5.190	15.000000	15.000000	15.000000	15.000000	12.503594	14.025959	14.400702	16.005167
5.200	15.000000	15.000000	15.000000	15.000000	12.503594	14.025959	14.400702	15.986838
5.210	15.000000	15.000000	15.000000	15.000000	12.503594	14.009637	14.400702	15.986838
5.220	15.000000	15.000000	15.000000	15.000000	12.503594	14.009637	14.417611	15.638588
5.230	15.000000	15.000000	15.000000	15.000000	12.503594	14.025959	14.417611	15.968509
5.240	15.000000	15.000000	15.000000	15.000000	12.503594	14.009637	14.721982	15.620259
5.250	15.000000	15.000000	15.000000	15.000000	12.503594	14.009637	14.417611	15.986838
5.260	15.000000	15.000000	15.000000	15.000000	12.503594	14.025959	14.400702	15.968509
5.270	15.000000	15.000000	15.000000	15.000000	12.503594	14.025959	14.400702	15.968509
5.280	15.000000	15.000000	15.000000	15.000000	12.503594	14.025959	14.400702	15.968509
5.290	15.000000	15.000000	15.000000	15.000000	12.503594	14.025959	14.400702	15.968509
5.300	15.000000	15.000000	15.000000	15.000000	12.503594	14.025959	14.400702	15.968509
5.310	15.000000	15.000000	15.000000	15.000000	12.503594	14.025959	14.417611	15.638588
5.320	15.000000	15.000000	15.000000	15.000000	12.503594	14.009637	14.400702	15.986838
5.330	15.000000	15.000000	15.000000	15.000000	12.503594	14.009637	14.400702	15.968509
5.340	15.000000	15.000000	15.000000	15.000000	12.503594	14.025959	14.400702	15.968509
5.350	15.000000	15.000000	15.000000	15.000000	12.503594	14.025959	14.705073	15.638588
5.360	15.000000	15.000000	15.000000	15.000000	12.503594	14.025959	14.400702	15.968509
5.370	15.000000	15.000000	15.000000	15.000000	12.503594	14.025959	14.400702	15.986838
5.380	15.000000	15.000000	15.000000	15.000000	12.503594	14.025959	14.400702	15.986838
5.390	15.000000	15.000000	15.000000	15.000000	12.503594	14.042282	14.400702	15.968509
5.400	15.000000	15.000000	15.000000	15.000000	12.519127	14.025959	14.400702	15.968509
5.410	15.000000	15.000000	15.000000	15.000000	12.519127	14.009637	14.721982	15.638588
5.420	15.000000	15.000000	15.000000	15.000000	12.503594	14.025959	14.400702	15.968509
5.430	15.000000	15.000000	15.000000	15.000000	12.503594	14.009637	14.705073	15.986838
5.440	15.000000	15.000000	15.000000	15.000000	12.519127	14.009637	14.400702	15.638588
5.450	15.000000	15.000000	15.000000	15.000000	12.519127	14.009637	14.417611	15.638588
5.460	15.000000	15.000000	15.000000	15.000000	12.798728	13.993315	14.417611	15.986838
5.470	15.000000	15.000000	15.000000	15.000000	12.503594	14.009637	14.383792	15.968509
5.480	15.000000	15.000000	15.000000	15.000000	12.503594	14.025959	14.400702	15.968509
5.490	15.000000	15.000000	15.000000	15.000000	12.519127	14.009637	14.400702	16.005167
5.500	15.000000	15.000000	15.000000	15.000000	12.503594	14.009637	14.417611	15.638588
5.510	15.000000	15.000000	15.000000	15.000000	12.503594	14.025959	14.400702	15.986838
5.520	15.000000	15.000000	15.000000	15.000000	12.503594	14.025959	14.417611	16.005167
5.530	15.000000	15.000000	15.000000	15.000000	12.503594	14.009637	14.417611	15.986838
5.540	15.000000	15.000000	15.000000	15.000000	12.503594	14.009637	14.400702	15.986838
5.550	15.000000	15.000000	15.000000	15.000000	12.503594	14.025959	14.417611	15.986838
5.560	15.000000	15.000000	15.000000	15.000000	12.503594	13.993315	14.400702	15.986838
5.570	15.000000	15.000000	15.000000	15.000000	12.798728	14.009637	14.721982	15.968509
5.580	15.000000	15.000000	15.000000	15.000000	12.488061	14.009637	14.417611	15.968509
5.590	15.000000	15.000000	15.000000	15.000000	12.503594	14.009637	14.721982	15.968509
5.600	15.000000	15.000000	15.000000	15.000000	12.503594	14.009637	14.417611	15.656917
5.610	15.000000	15.000000	15.000000	15.000000	12.503594	14.025959	14.400702	15.638588
5.620	15.000000	15.000000	15.000000	15.000000	12.503594	13.993315	14.400702	15.968509
5.630	15.000000	15.000000	15.000000	15.000000	12.488061	14.009637	14.417611	15.638588
5.640	15.000000	15.000000	15.000000	15.000000	12.488061	14.009637	14.721982	15.968509
5.650	15.000000	15.000000	15.000000	15.000000	12.503594	14.025959	14.400702	15.968509
5.660	15.000000	15.000000	15.000000	15.000000	12.503594	14.009637	14.400702	15.638588
5.670	15.000000	15.000000	15.000000	15.000000	12.488061	14.025959	14.400702	15.638588
5.680	15.000000	15.000000	15.000000	15.000000	12.503594	14.009637	14.400702	15.638588
5.690	15.000000	15.000000	15.000000	15.000000	12.503594	14.025959	14.400702	15.986838
5.700	15.000000	15.000000	15.000000	15.000000	12.488061	14.009637	14.400702	15.638588
5.710	15.000000	15.000000	15.000000	15.000000	12.503594	14.009637	14.400702	15.656917
5.720	15.000000	15.000000	15.000000	15.000000	12.519127	14.009637	14.400702	15.986838
5.730	15.000000	15.000000	15.000000	15.000000	12.503594	14.009637	14.400702	15.986838
5.740	15.000000	15.000000	15.000000	15.000000	12.488061	14.009637	14.400702	15.656917
5.750	15.000000	15.000000	15.000000	15.000000	12.503594	14.009637	14.400702	15.986838
5.760	15.000000	15.000000	15.000000	15.000000	12.503594	14.009637	14.417611	15.986838
5.770	15.000000	15.000000	15.000000	15.000000	12.503594	14.009637	14.417611	15.986838
5.780	15.000000	15.000000	15.000000	15.000000	12.503594	14.009637	14.400702	15.638588
5.790	15.000000	15.000000	15.000000	15.000000	12.488061	14.009637	14.721982	15.968509
5.800	15.000000	15.000000	15.000000	15.000000	12.503594	14.009637	14.417611	15.968509
5.810	15.000000	15.000000	15.000000	15.000000	12.488061	14.009637	14.400702	15.986838
5.820	15.000000	15.000000	15.000000	15.000000	12.488061	14.009637	14.400702	15.986838
5.830	15.000000	15.000000	15.000000	15.000000	12.503594	14.009637	14.417611	15.638588
5.840	15.000000	15.000000	15.000000	15.000000	12.488061	14.009637	14.383792	15.986838
5.850	15.000000	15.000000	15.000000	15.000000	12.488061	14.025959	14.400702	15.968509
5.860	15.000000	15.000000	15.000000	15.000000	12.503594	13.993315	14.400702	15.968509
5.870	15.000000	15.000000	15.000000	15.000000	12.503594	14.009637	14.417611	15.986838
5.880	15.000000	15.000000	15.000000	15.000000	12.488061	14.025959	14.400702	15.986838
5.890	15.000000	15.000000	15.000000	15.000000	12.488061	14.009637	14.705073	15.968509
5.900	15.000000	15.000000	15.000000	15.000000	12.488061	14.025959	14.400702	15.986838
5.910	15.000000	15.000000	15.000000	15.000000	12.503594	14.025959	14.400702	15.986838
5.920	15.000000	15.000000	15.000000	15.000000	12.503594	14.025959	14.400702	15.986838
5.930	15.000000	15.000000	15.000000	15.000000	12.503594	14.025959	14.400702	15.986838
5.940	15.000000	15.000000	15.000000	15.000000	12.503594	14.009637	14.417611	15.986838
5.950	15.000000	15.000000	15.000000	15.000000	12.503594	14.009637	14.721982	15.986838
5.960	15.000000	15.000000	15.000000	15.000000	12.488061	14.025959	14.417611	15.986838
5.970	15.000000	15.000000	15.000000	15.000000	12.503594	14.009637	14.721982	15.638588
5.980	15.000000	15.000000	15.000000	15.000000	12.503594	14.009637	14.400702	16.005167
5.990	15.000000	15.000000	15.000000	15.000000	12.503594	14.025959	14.721982	15.986838
6.000	15.000000	15.000000	15.000000	15.000000	12.488061	14.009637	14.400702	15.986838
6.010	15.000000	15.000000	15.000000	15.000000	12.503594	14.009637	14.400702	15.986838
6.020	15.000000	15.000000	15.000000	15.000000	12.503594	14.009637	14.400702	15.986838
6.030	15.000000	15.000000	15.000000	15.000000	12.503594	14.009637	14.417611	15.986838
6.040	15.000000	15.000000	15.000000	15.000000	12.503594	14.009637	14.417611	15.986838
6.050	15.000000	15.000000	15.000000	15.000000	12.488061	14.303438	14.400702	15.638588
6.060	15.000000	15.000000	15.000000	15.000000	12.503594	14.025959	14.721982	15.986838
6.070	15.000000	15.000000	15.000000	15.000000	12.503594	14.009637	14.400702	15.986838
6.080	15.000000	15.000000	15.000000	15.000000	12.503594	14.009637	14.400702	15.986838
6.090	15.000000	15.000000	15.000000	15.000000	12.503594	14.009637	14.400702	15.986838
6.100	15.000000	15.000000	15.000000	15.000000	12.503594	14.009637	14.400702	15.986838
6.110	15.000000	15.000000	15.000000	15.000000	12.503594	14.009637	14.705073	15.968509
6.120	15.000000	15.000000	15.000000	15.000000	12.503594	14.009637	14.721982	15.620259
6.130	15.000000	15.000000	15.000000	15.000000	12.503594	14.025959	14.721982	15.638588
6.140	15.000000	15.000000	15.000000	15.000000	12.503594	14.009637	14.417611	15.968509
6.150	15.000000	15.000000	15.000000	15.000000	12.503594	14.009637	14.400702	15.968509
6.160	15.000000	15.000000	15.000000	15.000000	12.503594	14.009637	14.417611	15.986838
6.170	15.000000	15.000000	15.000000	15.000000	12.488061	14.009637	14.417611	15.638588
6.180	15.000000	15.000000	15.000000	15.000000	12.503594	14.009637	14.705073	15.638588
6.190	15.000000	15.000000	15.000000	15.000000	12.503594	13.993315	14.400702	15.986838
6.200	15.000000	15.000000	15.000000	15.000000	12.503594	14.009637	14.400702	15.986838
6.210	15.000000	15.000000	15.000000	15.000000	12.503594	14.009637	14.400702	15.986838
6.220	15.000000	15.000000	15.000000	15.000000	12.503594	14.025959	14.400702	15.638588
6.230	15.000000	15.000000	15.000000	15.000000	12.503594	14.009637	14.721982	15.968509
6.240	15.000000	15.000000	15.000000	15.000000	12.488061	14.009637	14.400702	15.986838
6.250	15.000000	15.000000	15.000000	15.000000	12.488061	14.009637	14.400702	15.986838
6.260	15.000000	15.000000	15.000000	15.000000	12.488061	14.025959	14.400702	15.986838
6.270	15.000000	15.000000	15.000000	15.000000	12.503594	14.025959	14.400702	15.986838
6.280	15.000000	15.000000	15.000000	15.000000	12.488061	14.025959	14.417611	15.986838
6.290	15.000000	15.000000	15.000000	15.000000	12.503594	14.009637	14.400702	16.005167
6.300	15.000000	15.000000	15.000000	15.000000	12.488061	14.009637	14.400702	15.986838
6.310	15.000000	15.000000	15.000000	15.000000	12.488061	14.009637	14.400702	15.986838
6.320	15.000000	15.000000	15.000000	15.000000	12.503594	14.025959	14.705073	15.968509
6.330	15.000000	15.000000	15.000000	15.000000	12.503594	14.009637	14.400702	15.986838
6.340	15.000000	15.000000	15.000000	15.000000	12.488061	14.025959	14.721982	15.986838
6.350	15.000000	15.000000	15.000000	15.000000	12.503594	14.025959	14.400702	15.986838
6.360	15.000000	15.000000	15.000000	15.000000	12.503594	14.025959	14.721982	15.986838
6.370	15.000000	15.000000	15.000000	15.000000	12.503594	14.009637	14.400702	15.986838
6.380	15.000000	15.000000	15.000000	15.000000	12.503594	14.009637	14.400702	15.968509
6.390	15.000000	15.000000	15.000000	15.000000	12.503594	14.025959	14.400702	16.005167
6.400	15.000000	15.000000	15.000000	15.000000	12.503594	14.025959	14.400702	15.986838
6.410	15.000000	15.000000	15.000000	15.000000	12.503594	14.025959	14.705073	16.005167
6.420	15.000000	15.000000	15.000000	15.000000	12.503594	14.009637	14.400702	15.968509
6.430	15.000000	15.000000	15.000000	15.000000	12.783194	14.025959	14.400702	15.968509
6.440	15.000000	15.000000	15.000000	15.000000	12.503594	14.009637	14.721982	15.638588
6.450	15.000000	15.000000	15.000000	15.000000	12.488061	14.025959	14.400702	15.986838
6.460	15.000000	15.000000	15.000000	15.000000	12.488061	14.025959	14.400702	15.968509
6.470	15.000000	15.000000	15.000000	15.000000	12.503594	14.009637	14.400702	15.968509
6.480	15.000000	15.000000	15.000000	15.000000	12.503594	14.009637	14.721982	15.986838
6.490	15.000000	15.000000	15.000000	15.000000	12.488061	14.009637	14.400702	15.986838
6.500	15.000000	15.000000	15.000000	15.000000	12.488061	14.025959	14.400702	15.986838
6.510	15.000000	15.000000	15.000000	15.000000	12.503594	14.009637	14.400702	15.638588
6.520	15.000000	15.000000	15.000000	15.000000	12.503594	14.009637	14.400702	15.986838
6.530	15.000000	15.000000	15.000000	15.000000	12.488061	14.009637	14.417611	15.986838
6.540	15.000000	15.000000	15.000000	15.000000	12.503594	13.993315	14.400702	15.986838
6.550	15.000000	15.000000	15.000000	15.000000	12.488061	14.009637	14.400702	15.968509
6.560	15.000000	15.000000	15.000000	15.000000	12.503594	14.009637	14.721982	15.986838
6.570	15.000000	15.000000	15.000000	15.000000	12.503594	14.009637	14.721982	15.620259
6.580	15.000000	15.000000	15.000000	15.000000	12.488061	14.009637	14.400702	15.986838
6.590	15.000000	15.000000	15.000000	15.000000	12.488061	14.025959	14.417611	15.986838
6.600	15.000000	15.000000	15.000000	15.000000	12.503594	14.009637	14.721982	15.986838
6.610	15.000000	15.000000	15.000000	15.000000	12.503594	14.009637	14.417611	15.986838
6.620	15.000000	15.000000	15.000000	15.000000	12.488061	14.009637	14.400702	15.986838
6.630	15.000000	15.000000	15.000000	15.000000	12.503594	14.009637	14.400702	15.986838
6.640	15.000000	15.000000	15.000000	15.000000	12.503594	14.009637	14.721982	15.656917
6.650	15.000000	15.000000	15.000000	15.000000	12.208461	14.009637	14.417611	15.986838
6.660	15.000000	15.000000	15.000000	15.000000	12.488061	14.009637	14.417611	15.968509
6.670	15.000000	15.000000	15.000000	15.000000	12.503594	14.009637	14.721982	15.968509
6.680	15.000000	15.000000	15.000000	15.000000	12.503594	13.993315	14.417611	15.986838
6.690	15.000000	15.000000	15.000000	15.000000	12.488061	14.009637	14.417611	15.968509
6.700	15.000000	15.000000	15.000000	15.000000	12.519127	14.009637	14.400702	15.968509
6.710	15.000000	15.000000	15.000000	15.000000	12.488061	14.009637	14.400702	15.638588
6.720	15.000000	15.000000	15.000000	15.000000	12.488061	14.009637	14.417611	15.638588
6.730	15.000000	15.000000	15.000000	15.000000	12.488061	14.009637	14.417611	15.620259
6.740	15.000000	15.000000	15.000000	15.000000	12.503594	14.009637	14.417611	15.968509
6.750	15.000000	15.000000	15.000000	15.000000	12.503594	14.009637	14.400702	15.986838
6.760	15.000000	15.000000	15.000000	15.000000	12.503594	14.009637	14.400702	15.986838
6.770	15.000000	15.000000	15.000000	15.000000	12.503594	14.009637	14.417611	15.638588
6.780	15.000000	15.000000	15.000000	15.000000	12.503594	13.993315	14.417611	15.638588
6.790	15.000000	15.000000	15.000000	15.000000	12.488061	14.009637	14.417611	15.968509
6.800	15.000000	15.000000	15.000000	15.000000	12.488061	14.009637	14.417611	15.638588
6.810	15.000000	15.000000	15.000000	15.000000	12.783194	14.009637	14.721982	15.968509
6.820	15.000000	15.000000	15.000000	15.000000	12.488061	14.009637	14.417611	15.968509
6.830	15.000000	15.000000	15.000000	15.000000	12.503594	14.009637	14.721982	15.638588
6.840	15.000000	15.000000	15.000000	15.000000	12.503594	14.009637	14.738892	15.638588
6.850	15.000000	15.000000	15.000000	15.000000	12.488061	14.025959	14.417611	16.005167
6.860	15.000000	15.000000	15.000000	15.000000	12.488061	14.009637	14.417611	15.986838
6.870	15.000000	15.000000	15.000000	15.000000	12.503594	14.009637	14.417611	15.986838
6.880	15.000000	15.000000	15.000000	15.000000	12.503594	14.009637	14.417611	15.968509
6.890	15.000000	15.000000	15.000000	15.000000	12.503594	14.009637	14.721982	15.986838
6.900	15.000000	15.000000	15.000000	15.000000	12.503594	14.009637	14.417611	15.986838
6.910	15.000000	15.000000	15.000000	15.000000	12.488061	13.993315	14.417611	15.986838
6.920	15.000000	15.000000	15.000000	15.000000	12.488061	14.009637	14.417611	15.638588
6.930	15.000000	15.000000	15.000000	15.000000	12.503594	14.009637	14.417611	15.986838
6.940	15.000000	15.000000	15.000000	15.000000	12.503594	14.319760	14.400702	15.968509
6.950	15.000000	15.000000	15.000000	15.000000	12.488061	14.009637	14.400702	15.986838
6.960	15.000000	15.000000	15.000000	15.000000	12.503594	14.009637	14.400702	15.986838
6.970	15.000000	15.000000	15.000000	15.000000	12.783194	14.009637	14.417611	15.986838
6.980	15.000000	15.000000	15.000000	15.000000	12.488061	14.009637	14.417611	15.638588
6.990	15.000000	15.000000	15.000000	15.000000	12.503594	14.025959	14.738892	15.986838
7.000	15.000000	15.000000	15.000000	15.000000	12.488061	14.009637	14.721982	15.986838
7.010	15.000000	15.000000	15.000000	15.000000	12.503594	14.009637	14.400702	15.986838
7.020	15.000000	15.000000	15.000000	15.000000	12.503594	14.009637	14.400702	15.968509
7.030	15.000000	15.000000	15.000000	15.000000	12.488061	14.009637	14.417611	15.986838
7.040	15.000000	15.000000	15.000000	15.000000	12.503594	14.009637	14.400702	15.986838
7.050	15.000000	15.000000	15.000000	15.000000	12.488061	14.009637	14.417611	15.968509
7.060	15.000000	15.000000	15.000000	15.000000	12.488061	14.009637	14.417611	15.986838
7.070	15.000000	15.000000	15.000000	15.000000	12.503594	14.009637	14.721982	15.986838
7.080	15.000000	15.000000	15.000000	15.000000	12.488061	14.009637	14.417611	15.986838
7.090	15.000000	15.000000	15.000000	15.000000	12.488061	14.009637	14.400702	15.986838
7.100	15.000000	15.000000	15.000000	15.000000	12.488061	14.009637	14.417611	15.986838
7.110	15.000000	15.000000	15.000000	15.000000	12.488061	14.009637	14.400702	15.968509
7.120	15.000000	15.000000	15.000000	15.000000	12.798728	14.009637	14.705073	15.968509
7.130	15.000000	15.000000	15.000000	15.000000	12.503594	14.009637	14.400702	15.968509
7.140	15.000000	15.000000	15.000000	15.000000	12.503594	14.009637	14.705073	15.986838
7.150	15.000000	15.000000	15.000000	15.000000	12.503594	14.009637	14.400702	15.968509
7.160	15.000000	15.000000	15.000000	15.000000	12.503594	14.009637	14.400702	15.638588
7.170	15.000000	15.000000	15.000000	15.000000	12.488061	14.009637	14.400702	15.986838
7.180	15.000000	15.000000	15.000000	15.000000	12.503594	13.993315	14.417611	15.986838
7.190	15.000000	15.000000	15.000000	15.000000	12.503594	14.025959	14.705073	15.986838
7.200	15.000000	15.000000	15.000000	15.000000	12.488061	14.009637	14.400702	15.986838
7.210	15.000000	15.000000	15.000000	15.000000	12.503594	14.009637	14.417611	15.986838
7.220	15.000000	15.000000	15.000000	15.000000	12.503594	14.009637	14.417611	15.638588
7.230	15.000000	15.000000	15.000000	15.000000	12.503594	14.009637	14.417611	15.986838
7.240	15.000000	15.000000	15.000000	15.000000	12.503594	14.009637	14.417611	15.986838
7.250	15.000000	15.000000	15.000000	15.000000	12.488061	14.009637	14.721982	15.968509
7.260	15.000000	15.000000	15.000000	15.000000	12.488061	13.993315	14.417611	16.005167
7.270	15.000000	15.000000	15.000000	15.000000	12.503594	14.009637	14.417611	15.638588
7.280	15.000000	15.000000	15.000000	15.000000	12.488061	14.009637	14.721982	15.638588
7.290	15.000000	15.000000	15.000000	15.000000	12.503594	13.993315	14.417611	15.986838
7.300	15.000000	15.000000	15.000000	15.000000	12.503594	14.009637	14.721982	15.986838
7.310	15.000000	15.000000	15.000000	15.000000	12.503594	14.009637	14.417611	15.986838
7.320	15.000000	15.000000	15.000000	15.000000	12.503594	14.009637	14.417611	15.638588
7.330	15.000000	15.000000	15.000000	15.000000	12.488061	14.009637	14.417611	15.638588
7.340	15.000000	15.000000	15.000000	15.000000	12.503594	14.009637	14.417611	15.986838
7.350	15.000000	15.000000	15.000000	15.000000	12.503594	14.009637	14.417611	15.968509
7.360	15.000000	15.000000	15.000000	15.000000	12.503594	14.009637	14.400702	15.986838
7.370	15.000000	15.000000	15.000000	15.000000	12.488061	14.009637	14.417611	15.986838
7.380	15.000000	15.000000	15.000000	15.000000	12.488061	14.025959	14.417611	15.968509
7.390	15.000000	15.000000	15.000000	15.000000	12.503594	14.009637	14.400702	16.005167
7.400	15.000000	15.000000	15.000000	15.000000	12.503594	14.009637	14.705073	16.005167
7.410	15.000000	15.000000	15.000000	15.000000	12.503594	13.993315	14.400702	15.986838
7.420	15.000000	15.000000	15.000000	15.000000	12.503594	14.025959	14.417611	15.986838
7.430	15.000000	15.000000	15.000000	15.000000	12.503594	13.993315	14.400702	15.986838
7.440	15.000000	15.000000	15.000000	15.000000	12.503594	14.009637	14.400702	15.986838
7.450	15.000000	15.000000	15.000000	15.000000	12.503594	14.009637	14.400702	15.968509
7.460	15.000000	15.000000	15.000000	15.000000	12.503594	14.009637	14.417611	15.986838
7.470	15.000000	15.000000	15.000000	15.000000	12.503594	14.009637	14.400702	15.638588
7.480	15.000000	15.000000	15.000000	15.000000	12.488061	13.993315	14.417611	15.986838
7.490	15.000000	15.000000	15.000000	15.000000	12.503594	13.993315	14.417611	15.986838
7.500	15.000000	15.000000	15.000000	15.000000	12.488061	14.009637	14.417611	16.005167
7.510	15.000000	15.000000	15.000000	15.000000	12.503594	14.009637	14.417611	15.638588
7.520	15.000000	15.000000	15.000000	15.000000	12.503594	14.025959	14.417611	15.968509
7.530	15.000000	15.000000	15.000000	15.000000	12.503594	13.993315	14.417611	15.968509
7.540	15.000000	15.000000	15.000000	15.000000	12.503594	14.009637	14.400702	15.968509
7.550	15.000000	15.000000	15.000000	15.000000	12.503594	14.009637	14.417611	16.005167
7.560	15.000000	15.000000	15.000000	15.000000	12.503594	14.009637	14.721982	15.986838
7.570	15.000000	15.000000	15.000000	15.000000	12.503594	14.025959	14.400702	15.986838
7.580	15.000000	15.000000	15.000000	15.000000	12.488061	14.009637	14.400702	15.968509
7.590	15.000000	15.000000	15.000000	15.000000	12.503594	14.009637	14.417611	15.986838
7.600	15.000000	15.000000	15.000000	15.000000	12.488061	14.009637	14.721982	15.968509
7.610	15.000000	15.000000	15.000000	15.000000	12.503594	14.009637	14.721982	15.638588
7.620	15.000000	15.000000	15.000000	15.000000	12.488061	14.009637	14.417611	15.986838
7.630	15.000000	15.000000	15.000000	15.000000	12.503594	14.009637	14.417611	15.986838
7.640	15.000000	15.000000	15.000000	15.000000	12.503594	14.009637	14.721982	15.968509
7.650	15.000000	15.000000	15.000000	15.000000	12.503594	14.025959	14.417611	15.986838
7.660	15.000000	15.000000	15.000000	15.000000	12.488061	14.009637	14.417611	15.968509
7.670	15.000000	15.000000	15.000000	15.000000	12.503594	13.993315	14.417611	15.968509
7.680	15.000000	15.000000	15.000000	15.000000	12.503594	14.009637	14.417611	15.986838
7.690	15.000000	15.000000	15.000000	15.000000	12.488061	14.009637	14.417611	15.986838
7.700	15.000000	15.000000	15.000000	15.000000	12.503594	14.009637	14.400702	15.638588
7.710	15.000000	15.000000	15.000000	15.000000	12.488061	14.009637	14.417611	15.638588
7.720	15.000000	15.000000	15.000000	15.000000	12.488061	14.009637	14.721982	15.638588
7.730	15.000000	15.000000	15.000000	15.000000	12.503594	14.025959	14.400702	15.968509
7.740	15.000000	15.000000	15.000000	15.000000	12.503594	14.009637	14.417611	15.986838
7.750	15.000000	15.000000	15.000000	15.000000	12.488061	14.009637	14.400702	15.968509
7.760	15.000000	15.000000	15.000000	15.000000	12.488061	13.993315	14.434521	15.986838
7.770	15.000000	15.000000	15.000000	15.000000	12.488061	14.009637	14.417611	15.986838
7.780	15.000000	15.000000	15.000000	15.000000	12.503594	14.009637	14.417611	15.986838
7.790	15.000000	15.000000	15.000000	15.000000	12.503594	13.993315	14.721982	15.986838
7.800	15.000000	15.000000	15.000000	15.000000	12.488061	14.009637	14.400702	15.968509
7.810	15.000000	15.000000	15.000000	15.000000	12.503594	14.025959	14.400702	15.638588
7.820	15.000000	15.000000	15.000000	15.000000	12.503594	14.009637	14.400702	15.986838
7.830	15.000000	15.000000	15.000000	15.000000	12.783194	14.025959	14.417611	15.986838
7.840	15.000000	15.000000	15.000000	15.000000	12.488061	14.009637	14.721982	15.986838
7.850	15.000000	15.000000	15.000000	15.000000	12.503594	14.009637	14.400702	15.638588
7.860	15.000000	15.000000	15.000000	15.000000	12.488061	14.009637	14.721982	15.968509
7.870	15.000000	15.000000	15.000000	15.000000	12.488061	14.009637	14.400702	15.986838
7.880	15.000000	15.000000	15.000000	15.000000	12.503594	14.009637	14.417611	15.638588
7.890	15.000000	15.000000	15.000000	15.000000	12.503594	14.009637	14.417611	15.986838
7.900	15.000000	15.000000	15.000000	15.000000	12.503594	14.025959	14.434521	15.968509
7.910	15.000000	15.000000	15.000000	15.000000	12.488061	14.025959	14.400702	15.638588
7.920	15.000000	15.000000	15.000000	15.000000	12.488061	14.009637	14.417611	15.986838
7.930	15.000000	15.000000	15.000000	15.000000	12.503594	14.009637	14.417611	15.986838
7.940	15.000000	15.000000	15.000000	15.000000	12.503594	14.009637	14.417611	15.968509
7.950	15.000000	15.000000	15.000000	15.000000	12.503594	14.009637	14.400702	15.986838
7.960	15.000000	15.000000	15.000000	15.000000	12.519127	14.009637	14.417611	15.638588
7.970	15.000000	15.000000	15.000000	15.000000	12.503594	14.025959	14.400702	15.986838
7.980	15.000000	15.000000	15.000000	15.000000	12.503594	14.025959	14.417611	15.968509
7.990	15.000000	15.000000	15.000000	15.000000	12.503594	14.009637	14.738892	15.986838
8.000	15.000000	15.000000	15.000000	15.000000	12.503594	14.009637	14.400702	15.986838
8.010	15.000000	15.000000	15.000000	15.000000	12.503594	14.025959	14.417611	15.986838
8.020	15.000000	15.000000	15.000000	15.000000	12.503594	14.009637	14.400702	15.968509
8.030	15.000000	15.000000	15.000000	15.000000	12.503594	14.009637	14.417611	15.968509
8.040	15.000000	15.000000	15.000000	15.000000	12.488061	14.009637	14.417611	15.986838
8.050	15.000000	15.000000	15.000000	15.000000	12.503594	13.993315	14.417611	15.986838
8.060	15.000000	15.000000	15.000000	15.000000	12.488061	14.009637	14.417611	15.620259
8.070	15.000000	15.000000	15.000000	15.000000	12.503594	14.009637	14.434521	15.656917
8.080	15.000000	15.000000	15.000000	15.000000	12.503594	14.009637	14.417611	15.968509
8.090	15.000000	15.000000	15.000000	15.000000	12.488061	14.009637	14.417611	15.968509
8.100	15.000000	15.000000	15.000000	15.000000	12.503594	14.009637	14.400702	15.968509
8.110	15.000000	15.000000	15.000000	15.000000	12.503594	14.009637	14.417611	15.656917
8.120	15.000000	15.000000	15.000000	15.000000	12.503594	14.025959	14.417611	15.986838
8.130	15.000000	15.000000	15.000000	15.000000	12.503594	14.009637	14.400702	15.986838
8.140	15.000000	15.000000	15.000000	15.000000	12.503594	14.009637	14.400702	15.986838
8.150	15.000000	15.000000	15.000000	15.000000	12.488061	14.336083	14.417611	15.656917
8.160	15.000000	15.000000	15.000000	15.000000	12.488061	13.993315	14.721982	15.638588
8.170	15.000000	15.000000	15.000000	15.000000	12.503594	14.009637	14.721982	15.968509
8.180	15.000000	15.000000	15.000000	15.000000	12.503594	14.025959	14.721982	15.968509
8.190	15.000000	15.000000	15.000000	15.000000	12.503594	14.025959	14.400702	15.638588
8.200	15.000000	15.000000	15.000000	15.000000	12.503594	14.009637	14.417611	15.968509
8.210	15.000000	15.000000	15.000000	15.000000	12.503594	14.009637	14.417611	15.986838
8.220	15.000000	15.000000	15.000000	15.000000	12.488061	13.993315	14.417611	15.986838
8.230	15.000000	15.000000	15.000000	15.000000	12.488061	14.025959	14.417611	15.986838
8.240	15.000000	15.000000	15.000000	15.000000	12.488061	14.009637	14.417611	15.638588
8.250	15.000000	15.000000	15.000000	15.000000	12.503594	14.009637	14.721982	15.986838
8.260	15.000000	15.000000	15.000000	15.000000	12.503594	14.025959	14.417611	15.968509
8.270	15.000000	15.000000	15.000000	15.000000	12.503594	14.009637	14.417611	15.986838
8.280	15.000000	15.000000	15.000000	15.000000	12.503594	14.009637	14.417611	15.986838
8.290	15.000000	15.000000	15.000000	15.000000	12.503594	14.009637	14.417611	15.986838
8.300	15.000000	15.000000	15.000000	15.000000	12.503594	14.009637	14.417611	15.986838
8.310	15.000000	15.000000	15.000000	15.000000	12.503594	14.009637	14.400702	15.968509
8.320	15.000000	15.000000	15.000000	15.000000	12.488061	14.009637	14.417611	15.986838
8.330	15.000000	15.000000	15.000000	15.000000	12.503594	14.009637	14.400702	15.968509
8.340	15.000000	15.000000	15.000000	15.000000	12.488061	14.009637	14.417611	15.986838
8.350	15.000000	15.000000	15.000000	15.000000	12.488061	14.009637	14.417611	15.968509
8.360	15.000000	15.000000	15.000000	15.000000	12.488061	14.025959	14.417611	15.986838
8.370	15.000000	15.000000	15.000000	15.000000	12.503594	14.009637	14.721982	15.986838
8.380	15.000000	15.000000	15.000000	15.000000	12.488061	14.009637	14.434521	15.638588
8.390	15.000000	15.000000	15.000000	15.000000	12.488061	14.025959	14.400702	15.986838
8.400	15.000000	15.000000	15.000000	15.000000	12.488061	14.009637	14.417611	15.968509
8.410	15.000000	15.000000	15.000000	15.000000	12.488061	14.009637	14.417611	15.638588
8.420	15.000000	15.000000	15.000000	15.000000	12.503594	13.993315	14.400702	15.638588
8.430	15.000000	15.000000	15.000000	15.000000	12.503594	14.009637	14.400702	15.986838
8.440	15.000000	15.000000	15.000000	15.000000	12.488061	14.009637	14.721982	16.005167
8.450	15.000000	15.000000	15.000000	15.000000	12.503594	14.025959	14.400702	15.986838
8.460	15.000000	15.000000	15.000000	15.000000	12.503594	14.009637	14.400702	15.986838
8.470	15.000000	15.000000	15.000000	15.000000	12.503594	14.025959	14.400702	15.986838
8.480	15.000000	15.000000	15.000000	15.000000	12.488061	14.009637	14.705073	15.986838
8.490	15.000000	15.000000	15.000000	15.000000	12.488061	14.009637	14.400702	15.986838
8.500	15.000000	15.000000	15.000000	15.000000	12.503594	14.009637	14.400702	15.638588
8.510	15.000000	15.000000	15.000000	15.000000	12.503594	13.993315	14.400702	15.986838
8.520	15.000000	15.000000	15.000000	15.000000	12.798728	14.009637	14.400702	15.968509
8.530	15.000000	15.000000	15.000000	15.000000	12.503594	14.009637	14.400702	15.986838
8.540	15.000000	15.000000	15.000000	15.000000	12.503594	14.009637	14.400702	16.005167
8.550	15.000000	15.000000	15.000000	15.000000	12.503594	14.009637	14.400702	15.986838
8.560	15.000000	15.000000	15.000000	15.000000	12.519127	14.025959	14.400702	15.986838
8.570	15.000000	15.000000	15.000000	15.000000	12.503594	14.009637	14.400702	15.986838
8.580	15.000000	15.000000	15.000000	15.000000	12.798728	14.009637	14.400702	15.656917
8.590	15.000000	15.000000	15.000000	15.000000	12.503594	14.025959	14.417611	15.968509
8.600	15.000000	15.000000	15.000000	15.000000	12.503594	14.009637	14.400702	15.986838
8.610	15.000000	15.000000	15.000000	15.000000	12.488061	14.009637	14.400702	15.986838
8.620	15.000000	15.000000	15.000000	15.000000	12.488061	14.009637	14.721982	15.986838
8.630	15.000000	15.000000	15.000000	15.000000	12.783194	14.009637	14.417611	15.968509
8.640	15.000000	15.000000	15.000000	15.000000	12.503594	14.009637	14.400702	15.968509
8.650	15.000000	15.000000	15.000000	15.000000	12.503594	13.993315	14.721982	15.638588
8.660	15.000000	15.000000	15.000000	15.000000	12.472527	14.009637	14.417611	15.986838
8.670	15.000000	15.000000	15.000000	15.000000	12.488061	14.009637	14.705073	15.656917
8.680	15.000000	15.000000	15.000000	15.000000	12.488061	14.009637	14.400702	15.968509
8.690	15.000000	15.000000	15.000000	15.000000	12.488061	14.025959	14.417611	15.968509
8.700	15.000000	15.000000	15.000000	15.000000	12.503594	14.025959	14.400702	15.968509
8.710	15.000000	15.000000	15.000000	15.000000	12.503594	14.009637	14.400702	15.968509
8.720	15.000000	15.000000	15.000000	15.000000	12.488061	14.025959	14.705073	15.986838
8.730	15.000000	15.000000	15.000000	15.000000	12.783194	14.025959	14.400702	15.638588
8.740	15.000000	15.000000	15.000000	15.000000	12.488061	14.009637	14.417611	15.986838
8.750	15.000000	15.000000	15.000000	15.000000	12.488061	14.009637	14.400702	15.620259
8.760	15.000000	15.000000	15.000000	15.000000	12.503594	14.009637	14.400702	15.986838
8.770	15.000000	15.000000	15.000000	15.000000	12.503594	14.009637	14.383792	15.968509
8.780	15.000000	15.000000	15.000000	15.000000	12.488061	14.009637	14.417611	15.968509
8.790	15.000000	15.000000	15.000000	15.000000	12.503594	14.009637	14.417611	15.968509
8.800	15.000000	15.000000	15.000000	15.000000	12.488061	14.025959	14.400702	15.638588
8.810	15.000000	15.000000	15.000000	15.000000	12.488061	14.025959	14.400702	15.986838
8.820	15.000000	15.000000	15.000000	15.000000	12.783194	14.009637	14.400702	15.968509
8.830	15.000000	15.000000	15.000000	15.000000	12.503594	14.009637	14.417611	15.968509
8.840	15.000000	15.000000	15.000000	15.000000	12.503594	14.025959	14.400702	15.986838
8.850	15.000000	15.000000	15.000000	15.000000	12.488061	14.025959	14.417611	15.986838
8.860	15.000000	15.000000	15.000000	15.000000	12.488061	14.009637	14.400702	15.968509
8.870	15.000000	15.000000	15.000000	15.000000	12.503594	14.009637	14.400702	15.986838
8.880	15.000000	15.000000	15.000000	15.000000	12.488061	14.009637	14.417611	15.968509
8.890	15.000000	15.000000	15.000000	15.000000	12.503594	14.009637	14.400702	15.968509
8.900	15.000000	15.000000	15.000000	15.000000	12.798728	14.009637	14.400702	15.968509
8.910	15.000000	15.000000	15.000000	15.000000	12.488061	14.009637	14.721982	15.986838
8.920	15.000000	15.000000	15.000000	15.000000	12.503594	14.009637	14.400702	15.986838
8.930	15.000000	15.000000	15.000000	15.000000	12.488061	14.009637	14.383792	15.986838
8.940	15.000000	15.000000	15.000000	15.000000	12.488061	13.993315	14.400702	15.638588
8.950	15.000000	15.000000	15.000000	15.000000	12.488061	14.009637	14.400702	15.968509
8.960	15.000000	15.000000	15.000000	15.000000	12.488061	14.009637	14.400702	15.968509
8.970	15.000000	15.000000	15.000000	15.000000	12.192927	14.009637	14.400702	15.638588
8.980	15.000000	15.000000	15.000000	15.000000	12.503594	14.009637	14.721982	15.968509
8.990	15.000000	15.000000	15.000000	15.000000	12.488061	14.009637	14.400702	15.968509
9.000	15.000000	15.000000	15.000000	15.000000	12.488061	14.009637	14.400702	15.968509
9.010	15.000000	15.000000	15.000000	15.000000	12.503594	14.009637	14.400702	15.986838
9.020	15.000000	15.000000	15.000000	15.000000	12.488061	14.009637	14.417611	15.986838
9.030	15.000000	15.000000	15.000000	15.000000	12.503594	14.009637	14.400702	15.986838
9.040	15.000000	15.000000	15.000000	15.000000	12.488061	14.009637	14.721982	15.620259
9.050	15.000000	15.000000	15.000000	15.000000	12.503594	14.009637	14.400702	15.656917
9.060	15.000000	15.000000	15.000000	15.000000	12.488061	13.993315	14.400702	15.638588
9.070	15.000000	15.000000	15.000000	15.000000	12.503594	14.025959	14.400702	15.968509
9.080	15.000000	15.000000	15.000000	15.000000	12.503594	14.009637	14.400702	15.968509
9.090	15.000000	15.000000	15.000000	15.000000	12.798728	14.009637	14.400702	15.986838
9.100	15.000000	15.000000	15.000000	15.000000	12.488061	14.009637	14.400702	15.986838
9.110	15.000000	15.000000	15.000000	15.000000	12.488061	14.009637	14.383792	15.638588
9.120	15.000000	15.000000	15.000000	15.000000	12.488061	13.993315	14.705073	15.968509
9.130	15.000000	15.000000	15.000000	15.000000	12.488061	14.009637	14.400702	15.620259
9.140	15.000000	15.000000	15.000000	15.000000	12.488061	14.009637	14.400702	15.968509
9.150	15.000000	15.000000	15.000000	15.000000	12.488061	14.009637	14.721982	15.986838
9.160	15.000000	15.000000	15.000000	15.000000	12.503594	14.009637	14.721982	15.968509
9.170	15.000000	15.000000	15.000000	15.000000	12.488061	14.025959	14.400702	15.968509
9.180	15.000000	15.000000	15.000000	15.000000	12.503594	14.009637	14.400702	15.968509
9.190	15.000000	15.000000	15.000000	15.000000	12.503594	14.009637	14.400702	15.620259
9.200	15.000000	15.000000	15.000000	15.000000	12.503594	14.009637	14.417611	15.986838
9.210	15.000000	15.000000	15.000000	15.000000	12.488061	14.009637	14.400702	15.656917
9.220	15.000000	15.000000	15.000000	15.000000	12.488061	14.009637	14.400702	15.968509
9.230	15.000000	15.000000	15.000000	15.000000	12.503594	14.009637	14.705073	15.986838
9.240	15.000000	15.000000	15.000000	15.000000	12.488061	14.025959	14.705073	15.968509
9.250	15.000000	15.000000	15.000000	15.000000	12.503594	14.009637	14.417611	15.986838
9.260	15.000000	15.000000	15.000000	15.000000	12.503594	14.009637	14.400702	15.968509
9.270	15.000000	15.000000	15.000000	15.000000	12.503594	14.009637	14.417611	15.968509
9.280	15.000000	15.000000	15.000000	15.000000	12.503594	14.009637	14.417611	15.986838
9.290	15.000000	15.000000	15.000000	15.000000	12.503594	14.009637	14.721982	15.968509
9.300	15.000000	15.000000	15.000000	15.000000	12.503594	14.009637	14.417611	15.986838
9.310	15.000000	15.000000	15.000000	15.000000	12.503594	14.025959	14.417611	15.986838
9.320	15.000000	15.000000	15.000000	15.000000	12.488061	14.009637	14.400702	15.986838
9.330	15.000000	15.000000	15.000000	15.000000	12.503594	14.025959	14.417611	15.968509
9.340	15.000000	15.000000	15.000000	15.000000	12.503594	14.009637	14.400702	15.968509
9.350	15.000000	15.000000	15.000000	15.000000	12.488061	14.009637	14.705073	15.986838
9.360	15.000000	15.000000	15.000000	15.000000	12.488061	14.009637	14.417611	15.986838
9.370	15.000000	15.000000	15.000000	15.000000	12.503594	14.009637	14.417611	15.968509
9.380	15.000000	15.000000	15.000000	15.000000	12.503594	14.009637	14.417611	15.968509
9.390	15.000000	15.000000	15.000000	15.000000	12.488061	14.009637	14.721982	15.620259
9.400	15.000000	15.000000	15.000000	15.000000	12.503594	14.009637	14.721982	15.968509
9.410	15.000000	15.000000	15.000000	15.000000	12.519127	14.025959	14.417611	15.968509
9.420	15.000000	15.000000	15.000000	15.000000	12.488061	14.009637	14.400702	15.986838
9.430	15.000000	15.000000	15.000000	15.000000	12.488061	14.009637	14.417611	15.986838
9.440	15.000000	15.000000	15.000000	15.000000	12.503594	14.025959	14.417611	15.620259
9.450	15.000000	15.000000	15.000000	15.000000	12.503594	14.025959	14.417611	15.968509
9.460	15.000000	15.000000	15.000000	15.000000	12.798728	14.009637	14.417611	15.638588
9.470	15.000000	15.000000	15.000000	15.000000	12.503594	14.009637	14.721982	15.620259
9.480	15.000000	15.000000	15.000000	15.000000	12.503594	14.009637	14.400702	15.986838
9.490	15.000000	15.000000	15.000000	15.000000	12.519127	14.009637	14.417611	15.986838
9.500	15.000000	15.000000	15.000000	15.000000	12.503594	14.009637	14.417611	15.986838
9.510	15.000000	15.000000	15.000000	15.000000	12.503594	14.009637	14.417611	15.968509
9.520	15.000000	15.000000	15.000000	15.000000	12.503594	14.009637	14.417611	15.638588
9.530	15.000000	15.000000	15.000000	15.000000	12.503594	14.009637	14.400702	15.968509
9.540	15.000000	15.000000	15.000000	15.000000	12.503594	14.025959	14.400702	15.968509
9.550	15.000000	15.000000	15.000000	15.000000	12.503594	14.025959	14.417611	15.968509
9.560	15.000000	15.000000	15.000000	15.000000	12.503594	14.025959	14.705073	15.986838
9.570	15.000000	15.000000	15.000000	15.000000	12.503594	14.009637	14.417611	15.968509
9.580	15.000000	15.000000	15.000000	15.000000	12.519127	14.009637	14.400702	15.638588
9.590	15.000000	15.000000	15.000000	15.000000	12.488061	14.009637	14.705073	15.986838
9.600	15.000000	15.000000	15.000000	15.000000	12.503594	14.009637	14.417611	15.968509
9.610	15.000000	15.000000	15.000000	15.000000	12.503594	14.009637	14.721982	15.986838
9.620	15.000000	15.000000	15.000000	15.000000	12.488061	14.009637	14.400702	15.638588
9.630	15.000000	15.000000	15.000000	15.000000	12.503594	14.009637	14.705073	15.968509
9.640	15.000000	15.000000	15.000000	15.000000	12.503594	14.009637	14.417611	15.968509
9.650	15.000000	15.000000	15.000000	15.000000	12.488061	13.993315	14.400702	15.968509
9.660	15.000000	15.000000	15.000000	15.000000	12.488061	14.009637	14.400702	15.986838
9.670	15.000000	15.000000	15.000000	15.000000	12.503594	14.025959	14.400702	15.986838
9.680	15.000000	15.000000	15.000000	15.000000	12.488061	14.009637	14.400702	15.968509
9.690	15.000000	15.000000	15.000000	15.000000	12.503594	14.009637	14.400702	15.986838
9.700	15.000000	15.000000	15.000000	15.000000	12.503594	14.025959	14.400702	15.656917
9.710	15.000000	15.000000	15.000000	15.000000	12.488061	14.009637	14.400702	15.968509
9.720	15.000000	15.000000	15.000000	15.000000	12.503594	14.009637	14.400702	15.968509
9.730	15.000000	15.000000	15.000000	15.000000	12.503594	14.009637	14.721982	15.986838
9.740	15.000000	15.000000	15.000000	15.000000	12.503594	14.009637	14.400702	15.968509
9.750	15.000000	15.000000	15.000000	15.000000	12.503594	14.025959	14.417611	15.638588
9.760	15.000000	15.000000	15.000000	15.000000	12.488061	14.025959	14.417611	15.968509
9.770	15.000000	15.000000	15.000000	15.000000	12.488061	14.009637	14.400702	15.986838
9.780	15.000000	15.000000	15.000000	15.000000	12.503594	14.009637	14.417611	15.986838
9.790	15.000000	15.000000	15.000000	15.000000	12.488061	14.025959	14.400702	15.986838
9.800	15.000000	15.000000	15.000000	15.000000	12.503594	14.025959	14.400702	15.968509
9.810	15.000000	15.000000	15.000000	15.000000	12.503594	14.009637	14.417611	15.620259
9.820	15.000000	15.000000	15.000000	15.000000	12.488061	14.009637	14.400702	15.968509
9.830	15.000000	15.000000	15.000000	15.000000	12.488061	14.009637	14.400702	15.968509
9.840	15.000000	15.000000	15.000000	15.000000	12.488061	14.009637	14.417611	15.968509
9.850	15.000000	15.000000	15.000000	15.000000	12.488061	14.009637	14.705073	15.986838
9.860	15.000000	15.000000	15.000000	15.000000	12.488061	14.009637	14.417611	15.968509
9.870	15.000000	15.000000	15.000000	15.000000	12.503594	14.009637	14.417611	15.968509
9.880	15.000000	15.000000	15.000000	15.000000	12.503594	14.025959	14.417611	15.968509
9.890	15.000000	15.000000	15.000000	15.000000	12.503594	14.025959	14.721982	15.968509
9.900	15.000000	15.000000	15.000000	15.000000	12.503594	14.009637	14.400702	15.638588
9.910	15.000000	15.000000	15.000000	15.000000	12.503594	14.009637	14.400702	15.656917
9.920	15.000000	15.000000	15.000000	15.000000	12.503594	14.009637	14.400702	15.638588
9.930	15.000000	15.000000	15.000000	15.000000	12.488061	14.025959	14.721982	15.638588
9.940	15.000000	15.000000	15.000000	15.000000	12.503594	14.009637	14.417611	15.638588
9.950	15.000000	15.000000	15.000000	15.000000	12.783194	14.009637	14.417611	15.968509
9.960	15.000000	15.000000	15.000000	15.000000	12.488061	14.009637	14.417611	15.986838
9.970	15.000000	15.000000	15.000000	15.000000	12.488061	14.025959	14.400702	15.986838
9.980	15.000000	15.000000	15.000000	15.000000	12.503594	14.009637	14.417611	15.986838
9.990	15.000000	15.000000	15.000000	15.000000	12.503594	14.025959	14.417611	15.968509
10.000	15.000000	15.000000	15.000000	15.000000	12.503594	14.025959	14.400702	15.986838
10.010	15.000000	15.000000	15.000000	15.000000	12.503594	14.009637	14.721982	15.986838
10.020	15.000000	15.000000	15.000000	15.000000	12.503594	14.009637	14.417611	15.968509
10.030	15.000000	15.000000	15.000000	15.000000	12.503594	14.025959	14.417611	15.986838
10.040	15.000000	15.000000	15.000000	15.000000	12.503594	14.025959	14.721982	15.986838
10.050	15.000000	15.000000	15.000000	15.000000	12.503594	14.009637	14.417611	16.005167
10.060	15.000000	15.000000	15.000000	15.000000	12.503594	14.009637	14.417611	15.968509
10.070	15.000000	15.000000	15.000000	15.000000	12.503594	13.993315	14.400702	15.656917
10.080	15.000000	15.000000	15.000000	15.000000	12.503594	14.009637	14.721982	15.968509
10.090	15.000000	15.000000	15.000000	15.000000	12.503594	14.025959	14.417611	15.986838
10.100	15.000000	15.000000	15.000000	15.000000	12.503594	14.025959	14.400702	15.986838
10.110	15.000000	15.000000	15.000000	15.000000	12.488061	14.009637	14.417611	15.986838
10.120	15.000000	15.000000	15.000000	15.000000	12.503594	14.025959	14.400702	15.638588
10.130	15.000000	15.000000	15.000000	15.000000	12.503594	14.009637	14.400702	15.986838
10.140	15.000000	15.000000	15.000000	15.000000	12.503594	14.025959	14.417611	15.620259
10.150	15.000000	15.000000	15.000000	15.000000	12.503594	14.009637	14.417611	16.005167
10.160	15.000000	15.000000	15.000000	15.000000	12.488061	14.009637	14.417611	15.986838
10.170	15.000000	15.000000	15.000000	15.000000	12.503594	14.025959	14.738892	15.656917
10.180	15.000000	15.000000	15.000000	15.000000	12.488061	14.025959	14.400702	15.986838
10.190	15.000000	15.000000	15.000000	15.000000	12.503594	14.025959	14.400702	15.968509
10.200	15.000000	15.000000	15.000000	15.000000	12.503594	14.009637	14.417611	15.986838
10.210	15.000000	15.000000	15.000000	15.000000	12.488061	14.025959	14.400702	15.986838
10.220	15.000000	15.000000	15.000000	15.000000	12.503594	14.025959	14.721982	15.986838
10.230	15.000000	15.000000	15.000000	15.000000	12.503594	14.009637	14.417611	15.638588
10.240	15.000000	15.000000	15.000000	15.000000	12.503594	14.009637	14.417611	15.968509
10.250	15.000000	15.000000	15.000000	15.000000	12.519127	14.009637	14.417611	15.968509
10.260	15.000000	15.000000	15.000000	15.000000	12.503594	14.009637	14.417611	15.968509
10.270	15.000000	15.000000	15.000000	15.000000	12.503594	14.009637	14.721982	15.968509
10.280	15.000000	15.000000	15.000000	15.000000	12.503594	14.025959	14.417611	15.638588
10.290	15.000000	15.000000	15.000000	15.000000	12.503594	14.025959	14.400702	15.968509
10.300	15.000000	15.000000	15.000000	15.000000	12.488061	14.009637	14.400702	15.986838
10.310	15.000000	15.000000	15.000000	15.000000	12.503594	14.025959	14.400702	15.638588
10.320	15.000000	15.000000	15.000000	15.000000	12.503594	14.009637	14.721982	15.968509
10.330	15.000000	15.000000	15.000000	15.000000	12.503594	14.009637	14.400702	15.986838
10.340	15.000000	15.000000	15.000000	15.000000	12.503594	14.009637	14.721982	15.986838
10.350	15.000000	15.000000	15.000000	15.000000	12.488061	14.009637	14.400702	15.968509
10.360	15.000000	15.000000	15.000000	15.000000	12.503594	14.025959	14.721982	15.986838
10.370	15.000000	15.000000	15.000000	15.000000	12.503594	14.009637	14.400702	15.638588
10.380	15.000000	15.000000	15.000000	15.000000	12.503594	14.025959	14.417611	15.986838
10.390	15.000000	15.000000	15.000000	15.000000	12.503594	14.025959	14.721982	15.986838
10.400	15.000000	15.000000	15.000000	15.000000	12.503594	14.025959	14.417611	15.986838
10.410	15.000000	15.000000	15.000000	15.000000	12.488061	14.009637	14.738892	15.986838
10.420	15.000000	15.000000	15.000000	15.000000	12.503594	14.025959	14.417611	15.986838
10.430	15.000000	15.000000	15.000000	15.000000	12.488061	14.025959	14.721982	15.986838
10.440	15.000000	15.000000	15.000000	15.000000	12.503594	14.009637	14.417611	15.986838
10.450	15.000000	15.000000	15.000000	15.000000	12.503594	14.009637	14.417611	15.986838
10.460	15.000000	15.000000	15.000000	15.000000	12.503594	14.009637	14.400702	15.968509
10.470	15.000000	15.000000	15.000000	15.000000	12.488061	14.025959	14.400702	15.986838
10.480	15.000000	15.000000	15.000000	15.000000	12.488061	14.009637	14.400702	15.986838
10.490	15.000000	15.000000	15.000000	15.000000	12.208461	14.025959	14.400702	15.986838
10.500	15.000000	15.000000	15.000000	15.000000	12.503594	14.025959	14.400702	15.986838
10.510	15.000000	15.000000	15.000000	15.000000	12.488061	14.009637	14.400702	15.968509
10.520	15.000000	15.000000	15.000000	15.000000	12.223994	14.009637	14.400702	15.986838
10.530	15.000000	15.000000	15.000000	15.000000	12.503594	14.025959	14.400702	15.986838
10.540	15.000000	15.000000	15.000000	15.000000	12.503594	13.993315	14.417611	15.986838
10.550	15.000000	15.000000	15.000000	15.000000	12.503594	14.336083	14.417611	15.986838
10.560	15.000000	15.000000	15.000000	15.000000	12.519127	14.025959	14.417611	15.986838
10.570	15.000000	15.000000	15.000000	15.000000	12.488061	14.025959	14.417611	15.986838
10.580	15.000000	15.000000	15.000000	15.000000	12.503594	14.025959	14.417611	15.968509
10.590	15.000000	15.000000	15.000000	15.000000	12.503594	14.009637	14.400702	15.968509
10.600	15.000000	15.000000	15.000000	15.000000	12.503594	14.009637	14.400702	15.638588
10.610	15.000000	15.000000	15.000000	15.000000	12.503594	14.009637	14.400702	15.656917
10.620	15.000000	15.000000	15.000000	15.000000	12.503594	14.009637	14.400702	15.986838
10.630	15.000000	15.000000	15.000000	15.000000	12.503594	14.025959	14.400702	15.968509
10.640	15.000000	15.000000	15.000000	15.000000	12.488061	14.025959	14.417611	15.986838
10.650	15.000000	15.000000	15.000000	15.000000	12.488061	14.025959	14.721982	15.968509
10.660	15.000000	15.000000	15.000000	15.000000	12.503594	14.025959	14.417611	15.968509
10.670	15.000000	15.000000	15.000000	15.000000	12.503594	14.009637	14.417611	15.620259
10.680	15.000000	15.000000	15.000000	15.000000	12.519127	14.009637	14.417611	15.986838
10.690	15.000000	15.000000	15.000000	15.000000	12.503594	14.009637	14.400702	15.968509
10.700	15.000000	15.000000	15.000000	15.000000	12.783194	14.009637	14.417611	15.968509
10.710	15.000000	15.000000	15.000000	15.000000	12.503594	14.009637	14.400702	15.986838
10.720	15.000000	15.000000	15.000000	15.000000	12.503594	14.009637	14.705073	15.986838
10.730	15.000000	15.000000	15.000000	15.000000	12.503594	14.009637	14.400702	15.968509
10.740	15.000000	15.000000	15.000000	15.000000	12.503594	14.009637	14.400702	15.986838
10.750	15.000000	15.000000	15.000000	15.000000	12.488061	14.009637	14.400702	15.968509
10.760	15.000000	15.000000	15.000000	15.000000	12.503594	14.009637	14.400702	15.986838
10.770	15.000000	15.000000	15.000000	15.000000	12.798728	14.025959	14.705073	15.656917
10.780	15.000000	15.000000	15.000000	15.000000	12.503594	14.025959	14.400702	15.638588
10.790	15.000000	15.000000	15.000000	15.000000	12.503594	14.009637	14.400702	15.986838
10.800	15.000000	15.000000	15.000000	15.000000	12.503594	14.025959	14.400702	15.986838
10.810	15.000000	15.000000	15.000000	15.000000	12.503594	14.025959	14.400702	15.968509
10.820	15.000000	15.000000	15.000000	15.000000	12.503594	14.009637	14.400702	15.986838
10.830	15.000000	15.000000	15.000000	15.000000	12.488061	14.009637	14.705073	15.986838
10.840	15.000000	15.000000	15.000000	15.000000	12.503594	14.025959	14.400702	15.968509
10.850	15.000000	15.000000	15.000000	15.000000	12.503594	14.025959	14.721982	15.968509
10.860	15.000000	15.000000	15.000000	15.000000	12.503594	14.025959	14.400702	15.986838
10.870	15.000000	15.000000	15.000000	15.000000	12.488061	14.025959	14.721982	16.005167
10.880	15.000000	15.000000	15.000000	15.000000	12.503594	14.025959	14.400702	15.638588
10.890	15.000000	15.000000	15.000000	15.000000	12.488061	14.009637	14.400702	15.986838
10.900	15.000000	15.000000	15.000000	15.000000	12.503594	14.009637	14.417611	15.986838
10.910	15.000000	15.000000	15.000000	15.000000	12.503594	14.009637	14.400702	15.986838
10.920	15.000000	15.000000	15.000000	15.000000	12.488061	14.009637	14.383792	15.968509
10.930	15.000000	15.000000	15.000000	15.000000	12.503594	14.009637	14.721982	15.968509
10.940	15.000000	15.000000	15.000000	15.000000	12.488061	14.009637	14.400702	15.968509
10.950	15.000000	15.000000	15.000000	15.000000	12.503594	14.025959	14.400702	15.986838
10.960	15.000000	15.000000	15.000000	15.000000	12.488061	14.009637	14.400702	15.968509
10.970	15.000000	15.000000	15.000000	15.000000	12.488061	14.025959	14.400702	15.968509
10.980	15.000000	15.000000	15.000000	15.000000	12.503594	14.009637	14.400702	15.986838
10.990	15.000000	15.000000	15.000000	15.000000	12.208461	14.025959	14.400702	15.986838
11.000	15.000000	15.000000	15.000000	15.000000	12.488061	14.009637	14.400702	15.986838
11.010	15.000000	15.000000	15.000000	15.000000	12.503594	14.025959	14.400702	15.968509
11.020	15.000000	15.000000	15.000000	15.000000	12.503594	14.025959	14.417611	15.986838
11.030	15.000000	15.000000	15.000000	15.000000	12.503594	14.009637	14.417611	15.638588
11.040	15.000000	15.000000	15.000000	15.000000	12.488061	13.993315	14.417611	15.968509
11.050	15.000000	15.000000	15.000000	15.000000	12.503594	14.009637	14.400702	15.968509
11.060	15.000000	15.000000	15.000000	15.000000	12.503594	14.009637	14.400702	15.968509
11.070	15.000000	15.000000	15.000000	15.000000	12.503594	14.009637	14.400702	15.968509
11.080	15.000000	15.000000	15.000000	15.000000	12.503594	14.025959	14.400702	15.968509
11.090	15.000000	15.000000	15.000000	15.000000	12.503594	14.025959	14.400702	15.638588
11.100	15.000000	15.000000	15.000000	15.000000	12.503594	14.009637	14.400702	15.986838
11.110	15.000000	15.000000	15.000000	15.000000	12.488061	14.025959	14.721982	15.968509
11.120	15.000000	15.000000	15.000000	15.000000	12.488061	14.025959	14.400702	15.968509
11.130	15.000000	15.000000	15.000000	15.000000	12.488061	14.025959	14.721982	15.638588
11.140	15.000000	15.000000	15.000000	15.000000	12.503594	14.009637	14.400702	15.986838
11.150	15.000000	15.000000	15.000000	15.000000	12.503594	14.009637	14.417611	15.638588
11.160	15.000000	15.000000	15.000000	15.000000	12.783194	14.025959	14.383792	15.986838
11.170	15.000000	15.000000	15.000000	15.000000	12.488061	14.009637	14.383792	15.986838
11.180	15.000000	15.000000	15.000000	15.000000	12.503594	13.993315	14.400702	15.638588
11.190	15.000000	15.000000	15.000000	15.000000	12.798728	14.025959	14.400702	15.968509
11.200	15.000000	15.000000	15.000000	15.000000	12.503594	14.009637	14.400702	15.968509
11.210	15.000000	15.000000	15.000000	15.000000	12.503594	14.009637	14.400702	15.968509
11.220	15.000000	15.000000	15.000000	15.000000	12.503594	14.025959	14.417611	15.968509
11.230	15.000000	15.000000	15.000000	15.000000	12.488061	14.009637	14.417611	15.968509
11.240	15.000000	15.000000	15.000000	15.000000	12.488061	14.025959	14.400702	15.986838
11.250	15.000000	15.000000	15.000000	15.000000	12.488061	14.009637	14.417611	15.968509
11.260	15.000000	15.000000	15.000000	15.000000	12.503594	14.009637	14.400702	15.656917
11.270	15.000000	15.000000	15.000000	15.000000	12.503594	14.025959	14.400702	15.968509
11.280	15.000000	15.000000	15.000000	15.000000	12.503594	14.009637	14.400702	15.638588
11.290	15.000000	15.000000	15.000000	15.000000	12.488061	14.009637	14.417611	15.986838
11.300	15.000000	15.000000	15.000000	15.000000	12.503594	14.009637	14.400702	15.968509
11.310	15.000000	15.000000	15.000000	15.000000	12.503594	14.025959	14.417611	15.638588
11.320	15.000000	15.000000	15.000000	15.000000	12.488061	14.025959	14.417611	15.986838
11.330	15.000000	15.000000	15.000000	15.000000	12.503594	14.009637	14.417611	15.986838
11.340	15.000000	15.000000	15.000000	15.000000	12.503594	14.025959	14.400702	15.986838
11.350	15.000000	15.000000	15.000000	15.000000	12.503594	14.025959	14.417611	15.986838
11.360	15.000000	15.000000	15.000000	15.000000	12.503594	14.009637	14.400702	15.638588
11.370	15.000000	15.000000	15.000000	15.000000	12.503594	14.025959	14.400702	15.986838
11.380	15.000000	15.000000	15.000000	15.000000	12.488061	14.025959	14.400702	15.986838
11.390	15.000000	15.000000	15.000000	15.000000	12.488061	14.009637	14.400702	15.638588
11.400	15.000000	15.000000	15.000000	15.000000	12.503594	14.009637	14.417611	15.986838
11.410	15.000000	15.000000	15.000000	15.000000	12.488061	14.009637	14.400702	15.638588
11.420	15.000000	15.000000	15.000000	15.000000	12.519127	14.025959	14.705073	15.968509
11.430	15.000000	15.000000	15.000000	15.000000	12.488061	14.009637	14.417611	15.968509
11.440	15.000000	15.000000	15.000000	15.000000	12.503594	14.009637	14.721982	15.986838
11.450	15.000000	15.000000	15.000000	15.000000	12.503594	14.009637	14.417611	15.968509
11.460	15.000000	15.000000	15.000000	15.000000	12.503594	14.009637	14.400702	15.968509
11.470	15.000000	15.000000	15.000000	15.000000	12.488061	14.009637	14.417611	15.968509
11.480	15.000000	15.000000	15.000000	15.000000	12.783194	14.009637	14.400702	15.638588
11.490	15.000000	15.000000	15.000000	15.000000	12.488061	14.009637	14.400702	15.986838
11.500	15.000000	15.000000	15.000000	15.000000	12.488061	14.009637	14.400702	15.986838
11.510	15.000000	15.000000	15.000000	15.000000	12.503594	14.009637	14.400702	15.638588
11.520	15.000000	15.000000	15.000000	15.000000	12.503594	14.009637	14.417611	15.656917
11.530	15.000000	15.000000	15.000000	15.000000	12.488061	14.009637	14.417611	15.986838
11.540	15.000000	15.000000	15.000000	15.000000	12.488061	14.009637	14.417611	15.986838
11.550	15.000000	15.000000	15.000000	15.000000	12.503594	14.009637	14.417611	15.638588
11.560	15.000000	15.000000	15.000000	15.000000	12.488061	14.025959	14.400702	15.620259
11.570	15.000000	15.000000	15.000000	15.000000	12.503594	14.009637	14.417611	15.986838
11.580	15.000000	15.000000	15.000000	15.000000	12.488061	14.009637	14.721982	15.968509
11.590	15.000000	15.000000	15.000000	15.000000	12.488061	14.025959	14.400702	15.950180
11.600	15.000000	15.000000	15.000000	15.000000	12.783194	14.009637	14.417611	15.968509
11.610	15.000000	15.000000	15.000000	15.000000	12.488061	13.993315	14.400702	15.638588
11.620	15.000000	15.000000	15.000000	15.000000	12.503594	14.009637	14.400702	15.638588
11.630	15.000000	15.000000	15.000000	15.000000	12.488061	14.009637	14.400702	15.968509
11.640	15.000000	15.000000	15.000000	15.000000	12.488061	14.025959	14.400702	15.968509
11.650	15.000000	15.000000	15.000000	15.000000	12.488061	14.009637	14.721982	15.968509
11.660	15.000000	15.000000	15.000000	15.000000	12.503594	14.009637	14.417611	15.986838
11.670	15.000000	15.000000	15.000000	15.000000	12.488061	14.025959	14.721982	15.986838
11.680	15.000000	15.000000	15.000000	15.000000	12.488061	14.009637	14.721982	15.968509
11.690	15.000000	15.000000	15.000000	15.000000	12.503594	14.009637	14.417611	15.968509
11.700	15.000000	15.000000	15.000000	15.000000	12.503594	14.025959	14.417611	15.620259
11.710	15.000000	15.000000	15.000000	15.000000	12.503594	14.009637	14.417611	15.968509
11.720	15.000000	15.000000	15.000000	15.000000	12.503594	14.009637	14.434521	15.968509
11.730	15.000000	15.000000	15.000000	15.000000	12.503594	14.009637	14.417611	15.968509
11.740	15.000000	15.000000	15.000000	15.000000	12.488061	14.025959	14.417611	15.986838
11.750	15.000000	15.000000	15.000000	15.000000	12.488061	14.009637	14.417611	15.638588
11.760	15.000000	15.000000	15.000000	15.000000	12.503594	14.009637	14.400702	15.986838
11.770	15.000000	15.000000	15.000000	15.000000	12.488061	14.009637	14.417611	15.986838
11.780	15.000000	15.000000	15.000000	15.000000	12.503594	14.009637	14.400702	15.968509
11.790	15.000000	15.000000	15.000000	15.000000	12.488061	14.025959	14.721982	15.986838
11.800	15.000000	15.000000	15.000000	15.000000	12.488061	14.009637	14.417611	15.986838
11.810	15.000000	15.000000	15.000000	15.000000	12.488061	14.009637	14.417611	15.986838
11.820	15.000000	15.000000	15.000000	15.000000	12.488061	13.993315	14.721982	15.986838
11.830	15.000000	15.000000	15.000000	15.000000	12.503594	14.009637	14.417611	15.638588
11.840	15.000000	15.000000	15.000000	15.000000	12.783194	14.336083	14.721982	15.986838
11.850	15.000000	15.000000	15.000000	15.000000	12.503594	14.009637	14.400702	15.638588
11.860	15.000000	15.000000	15.000000	15.000000	12.503594	14.025959	14.417611	15.986838
11.870	15.000000	15.000000	15.000000	15.000000	12.503594	14.336083	14.417611	15.968509
11.880	15.000000	15.000000	15.000000	15.000000	12.503594	14.009637	14.417611	15.968509
11.890	15.000000	15.000000	15.000000	15.000000	12.488061	14.009637	14.417611	15.620259
11.900	15.000000	15.000000	15.000000	15.000000	12.488061	14.009637	14.400702	15.986838
11.910	15.000000	15.000000	15.000000	15.000000	12.503594	14.025959	14.400702	15.986838
11.920	15.000000	15.000000	15.000000	15.000000	12.503594	14.009637	14.417611	15.986838
11.930	15.000000	15.000000	15.000000	15.000000	12.488061	14.319760	14.417611	15.968509
11.940	15.000000	15.000000	15.000000	15.000000	12.503594	14.009637	14.383792	15.968509
11.950	15.000000	15.000000	15.000000	15.000000	12.503594	14.009637	14.417611	15.968509
11.960	15.000000	15.000000	15.000000	15.000000	12.503594	14.025959	14.721982	15.986838
11.970	15.000000	15.000000	15.000000	15.000000	12.503594	14.009637	14.400702	15.638588
11.980	15.000000	15.000000	15.000000	15.000000	12.488061	14.009637	14.400702	15.638588
11.990	15.000000	15.000000	15.000000	15.000000	12.503594	14.009637	14.400702	15.638588
12.000	15.000000	15.000000	15.000000	15.000000	12.503594	14.009637	14.705073	15.968509
12.010	15.000000	15.000000	15.000000	15.000000	12.488061	14.009637	14.417611	15.986838
12.020	15.000000	15.000000	15.000000	15.000000	12.503594	14.009637	14.417611	15.986838
12.030	15.000000	15.000000	15.000000	15.000000	12.503594	14.009637	14.721982	15.638588
12.040	15.000000	15.000000	15.000000	15.000000	12.488061	14.025959	14.400702	15.986838
12.050	15.000000	15.000000	15.000000	15.000000	12.488061	14.025959	14.400702	15.968509
12.060	15.000000	15.000000	15.000000	15.000000	12.488061	14.009637	14.400702	15.656917
12.070	15.000000	15.000000	15.000000	15.000000	12.488061	14.025959	14.400702	15.986838
12.080	15.000000	15.000000	15.000000	15.000000	12.783194	13.993315	14.383792	15.968509
12.090	15.000000	15.000000	15.000000	15.000000	12.488061	13.993315	14.400702	15.968509
12.100	15.000000	15.000000	15.000000	15.000000	12.503594	14.009637	14.705073	15.968509
12.110	15.000000	15.000000	15.000000	15.000000	12.488061	14.009637	14.417611	15.620259
12.120	15.000000	15.000000	15.000000	15.000000	12.488061	14.009637	14.400702	15.638588
12.130	15.000000	15.000000	15.000000	15.000000	12.488061	14.009637	14.400702	15.968509
12.140	15.000000	15.000000	15.000000	15.000000	12.503594	14.009637	14.400702	15.968509
12.150	15.000000	15.000000	15.000000	15.000000	12.488061	14.025959	14.400702	15.968509
12.160	15.000000	15.000000	15.000000	15.000000	12.488061	14.025959	14.417611	15.638588
12.170	15.000000	15.000000	15.000000	15.000000	12.488061	14.009637	14.417611	16.005167
12.180	15.000000	15.000000	15.000000	15.000000	12.488061	14.336083	14.400702	15.968509
12.190	15.000000	15.000000	15.000000	15.000000	12.488061	14.009637	14.400702	15.986838
12.200	15.000000	15.000000	15.000000	15.000000	12.488061	14.009637	14.417611	15.638588
12.210	15.000000	15.000000	15.000000	15.000000	12.488061	14.009637	14.400702	15.986838
12.220	15.000000	15.000000	15.000000	15.000000	12.488061	14.025959	14.721982	15.986838
12.230	15.000000	15.000000	15.000000	15.000000	12.503594	14.009637	14.417611	15.986838
12.240	15.000000	15.000000	15.000000	15.000000	12.488061	14.009637	14.417611	15.656917
12.250	15.000000	15.000000	15.000000	15.000000	12.488061	14.009637	14.417611	15.638588
12.260	15.000000	15.000000	15.000000	15.000000	12.488061	14.009637	14.400702	15.986838
12.270	15.000000	15.000000	15.000000	15.000000	12.503594	14.009637	14.400702	15.968509
12.280	15.000000	15.000000	15.000000	15.000000	12.503594	14.009637	14.417611	15.968509
12.290	15.000000	15.000000	15.000000	15.000000	12.488061	14.025959	14.400702	16.005167
12.300	15.000000	15.000000	15.000000	15.000000	12.488061	14.009637	14.400702	15.986838
12.310	15.000000	15.000000	15.000000	15.000000	12.488061	14.009637	14.417611	15.968509
12.320	15.000000	15.000000	15.000000	15.000000	12.503594	14.009637	14.417611	15.986838
12.330	15.000000	15.000000	15.000000	15.000000	12.503594	14.025959	14.721982	15.968509
12.340	15.000000	15.000000	15.000000	15.000000	12.488061	14.025959	14.400702	15.986838
12.350	15.000000	15.000000	15.000000	15.000000	12.488061	14.009637	14.400702	15.638588
12.360	15.000000	15.000000	15.000000	15.000000	12.503594	14.009637	14.705073	15.986838
12.370	15.000000	15.000000	15.000000	15.000000	12.503594	14.336083	14.417611	15.986838
12.380	15.000000	15.000000	15.000000	15.000000	12.503594	14.009637	14.705073	15.986838
12.390	15.000000	15.000000	15.000000	15.000000	12.488061	14.025959	14.417611	15.986838
12.400	15.000000	15.000000	15.000000	15.000000	12.783194	14.009637	14.400702	15.638588
12.410	15.000000	15.000000	15.000000	15.000000	12.503594	14.009637	14.400702	15.986838
12.420	15.000000	15.000000	15.000000	15.000000	12.488061	14.009637	14.417611	15.638588
12.430	15.000000	15.000000	15.000000	15.000000	12.503594	14.009637	14.721982	15.638588
12.440	15.000000	15.000000	15.000000	15.000000	12.488061	14.009637	14.417611	15.968509
12.450	15.000000	15.000000	15.000000	15.000000	12.488061	14.009637	14.417611	15.986838
12.460	15.000000	15.000000	15.000000	15.000000	12.488061	14.025959	14.417611	15.986838
12.470	15.000000	15.000000	15.000000	15.000000	12.208461	14.025959	14.417611	15.986838
12.480	15.000000	15.000000	15.000000	15.000000	12.488061	14.009637	14.417611	15.950180
12.490	15.000000	15.000000	15.000000	15.000000	12.783194	14.009637	14.417611	16.005167
12.500	15.000000	15.000000	15.000000	15.000000	12.503594	14.025959	14.417611	15.986838
12.510	15.000000	15.000000	15.000000	15.000000	12.503594	14.009637	14.417611	15.638588
12.520	15.000000	15.000000	15.000000	15.000000	12.503594	14.025959	14.417611	15.986838
12.530	15.000000	15.000000	15.000000	15.000000	12.503594	14.009637	14.417611	15.986838
12.540	15.000000	15.000000	15.000000	15.000000	12.488061	14.025959	14.417611	15.986838
12.550	15.000000	15.000000	15.000000	15.000000	12.488061	14.025959	14.417611	15.986838
12.560	15.000000	15.000000	15.000000	15.000000	12.488061	14.025959	14.417611	15.656917
12.570	15.000000	15.000000	15.000000	15.000000	12.488061	14.025959	14.721982	15.986838
12.580	15.000000	15.000000	15.000000	15.000000	12.503594	14.009637	14.400702	15.638588
12.590	15.000000	15.000000	15.000000	15.000000	12.488061	14.025959	14.417611	15.656917
12.600	15.000000	15.000000	15.000000	15.000000	12.488061	14.009637	14.400702	15.986838
12.610	15.000000	15.000000	15.000000	15.000000	12.503594	14.009637	14.400702	15.638588
12.620	15.000000	15.000000	15.000000	15.000000	12.488061	14.009637	14.417611	15.638588
12.630	15.000000	15.000000	15.000000	15.000000	12.503594	14.009637	14.400702	15.986838
12.640	15.000000	15.000000	15.000000	15.000000	12.503594	14.009637	14.417611	15.986838
12.650	15.000000	15.000000	15.000000	15.000000	12.503594	14.009637	14.400702	15.986838
12.660	15.000000	15.000000	15.000000	15.000000	12.503594	13.993315	14.705073	15.986838
12.670	15.000000	15.000000	15.000000	15.000000	12.488061	14.009637	14.417611	15.968509
12.680	15.000000	15.000000	15.000000	15.000000	12.503594	14.025959	14.417611	15.986838
12.690	15.000000	15.000000	15.000000	15.000000	12.488061	14.009637	14.400702	15.986838
12.700	15.000000	15.000000	15.000000	15.000000	12.503594	14.009637	14.400702	15.986838
12.710	15.000000	15.000000	15.000000	15.000000	12.488061	14.009637	14.721982	15.986838
12.720	15.000000	15.000000	15.000000	15.000000	12.488061	13.993315	14.400702	15.986838
12.730	15.000000	15.000000	15.000000	15.000000	12.503594	14.009637	14.400702	15.986838
12.740	15.000000	15.000000	15.000000	15.000000	12.503594	14.025959	14.721982	15.986838
12.750	15.000000	15.000000	15.000000	15.000000	12.503594	14.009637	14.400702	15.968509
12.760	15.000000	15.000000	15.000000	15.000000	12.488061	14.025959	14.705073	15.986838
12.770	15.000000	15.000000	15.000000	15.000000	12.488061	14.009637	14.417611	15.638588
12.780	15.000000	15.000000	15.000000	15.000000	12.503594	14.009637	14.400702	15.968509
12.790	15.000000	15.000000	15.000000	15.000000	12.503594	14.025959	14.417611	15.638588
12.800	15.000000	15.000000	15.000000	15.000000	12.503594	14.009637	14.400702	15.656917
12.810	15.000000	15.000000	15.000000	15.000000	12.488061	14.009637	14.417611	15.986838
12.820	15.000000	15.000000	15.000000	15.000000	12.503594	14.025959	14.400702	15.986838
12.830	15.000000	15.000000	15.000000	15.000000	12.503594	14.009637	14.721982	15.638588
12.840	15.000000	15.000000	15.000000	15.000000	12.503594	14.009637	14.417611	15.968509
12.850	15.000000	15.000000	15.000000	15.000000	12.503594	14.025959	14.721982	15.968509
12.860	15.000000	15.000000	15.000000	15.000000	12.208461	14.009637	14.417611	15.986838
12.870	15.000000	15.000000	15.000000	15.000000	12.798728	14.009637	14.417611	15.968509
12.880	15.000000	15.000000	15.000000	15.000000	12.503594	14.009637	14.417611	15.968509
12.890	15.000000	15.000000	15.000000	15.000000	12.503594	14.009637	14.400702	15.968509
12.900	15.000000	15.000000	15.000000	15.000000	12.503594	14.009637	14.721982	15.638588
12.910	15.000000	15.000000	15.000000	15.000000	12.488061	14.009637	14.721982	15.986838
12.920	15.000000	15.000000	15.000000	15.000000	12.519127	14.009637	14.417611	15.638588
12.930	15.000000	15.000000	15.000000	15.000000	12.503594	14.009637	14.417611	15.968509
12.940	15.000000	15.000000	15.000000	15.000000	12.503594	14.009637	14.417611	15.986838
